Tick,Color,Tone,TimeDur,WordItem,WordColor,AnsLeft,AnsRight,AnsCorr,tick.thisRepN,tick.thisTrialN,tick.thisN,tick.thisIndex,stroop_trials.thisRepN,stroop_trials.thisTrialN,stroop_trials.thisN,stroop_trials.thisIndex,start_session_two,start_stress_one,end_stress_one,rating_evaluation_one.response,rating_evaluation_one.rt,rating_evaluation_two.response,rating_evaluation_two.rt,start_stress_two,key_resp_part_two_meas.keys,key_resp_part_two_meas.rt,key_resp_part_two_meas.started,key_resp_part_two_meas.stopped,end_stress_two,start_cooldown_measurement,end_cooldown_measurement,end_session_two,participant,session,date,expName,psychopyVersion,frameRate,
1,green,440,1.0,,,,,,0,0,0,0,,,,,2019-09-24_16:39:54,2019-09-24_16:40:36,,,,,,,,,,,,,,,lp2,002,2019_Sep_24_1639,StressSession,3.2.3,59.556175466185344,
2,green,440,1.0,,,,,,0,1,1,1,,,,,,,,,,,,,,,,,,,,,lp2,002,2019_Sep_24_1639,StressSession,3.2.3,59.556175466185344,
3,green,440,1.0,,,,,,0,2,2,2,,,,,,,,,,,,,,,,,,,,,lp2,002,2019_Sep_24_1639,StressSession,3.2.3,59.556175466185344,
4,green,440,1.0,,,,,,0,3,3,3,,,,,,,,,,,,,,,,,,,,,lp2,002,2019_Sep_24_1639,StressSession,3.2.3,59.556175466185344,
5,green,440,1.0,,,,,,0,4,4,4,,,,,,,,,,,,,,,,,,,,,lp2,002,2019_Sep_24_1639,StressSession,3.2.3,59.556175466185344,
6,green,440,1.0,,,,,,0,5,5,5,,,,,,,,,,,,,,,,,,,,,lp2,002,2019_Sep_24_1639,StressSession,3.2.3,59.556175466185344,
7,green,440,1.0,,,,,,0,6,6,6,,,,,,,,,,,,,,,,,,,,,lp2,002,2019_Sep_24_1639,StressSession,3.2.3,59.556175466185344,
8,green,440,1.0,,,,,,0,7,7,7,,,,,,,,,,,,,,,,,,,,,lp2,002,2019_Sep_24_1639,StressSession,3.2.3,59.556175466185344,
9,green,440,1.0,,,,,,0,8,8,8,,,,,,,,,,,,,,,,,,,,,lp2,002,2019_Sep_24_1639,StressSession,3.2.3,59.556175466185344,
10,green,440,1.0,,,,,,0,9,9,9,,,,,,,,,,,,,,,,,,,,,lp2,002,2019_Sep_24_1639,StressSession,3.2.3,59.556175466185344,
11,green,440,1.0,,,,,,0,10,10,10,,,,,,,,,,,,,,,,,,,,,lp2,002,2019_Sep_24_1639,StressSession,3.2.3,59.556175466185344,
12,green,440,1.0,,,,,,0,11,11,11,,,,,,,,,,,,,,,,,,,,,lp2,002,2019_Sep_24_1639,StressSession,3.2.3,59.556175466185344,
13,green,440,1.0,,,,,,0,12,12,12,,,,,,,,,,,,,,,,,,,,,lp2,002,2019_Sep_24_1639,StressSession,3.2.3,59.556175466185344,
14,green,440,1.0,,,,,,0,13,13,13,,,,,,,,,,,,,,,,,,,,,lp2,002,2019_Sep_24_1639,StressSession,3.2.3,59.556175466185344,
15,green,440,1.0,,,,,,0,14,14,14,,,,,,,,,,,,,,,,,,,,,lp2,002,2019_Sep_24_1639,StressSession,3.2.3,59.556175466185344,
16,green,440,1.0,,,,,,0,15,15,15,,,,,,,,,,,,,,,,,,,,,lp2,002,2019_Sep_24_1639,StressSession,3.2.3,59.556175466185344,
17,green,440,1.0,,,,,,0,16,16,16,,,,,,,,,,,,,,,,,,,,,lp2,002,2019_Sep_24_1639,StressSession,3.2.3,59.556175466185344,
18,green,440,1.0,,,,,,0,17,17,17,,,,,,,,,,,,,,,,,,,,,lp2,002,2019_Sep_24_1639,StressSession,3.2.3,59.556175466185344,
19,green,440,1.0,,,,,,0,18,18,18,,,,,,,,,,,,,,,,,,,,,lp2,002,2019_Sep_24_1639,StressSession,3.2.3,59.556175466185344,
20,green,440,1.0,,,,,,0,19,19,19,,,,,,,,,,,,,,,,,,,,,lp2,002,2019_Sep_24_1639,StressSession,3.2.3,59.556175466185344,
21,green,440,1.0,,,,,,0,20,20,20,,,,,,,,,,,,,,,,,,,,,lp2,002,2019_Sep_24_1639,StressSession,3.2.3,59.556175466185344,
22,green,440,1.0,,,,,,0,21,21,21,,,,,,,,,,,,,,,,,,,,,lp2,002,2019_Sep_24_1639,StressSession,3.2.3,59.556175466185344,
23,green,440,1.0,,,,,,0,22,22,22,,,,,,,,,,,,,,,,,,,,,lp2,002,2019_Sep_24_1639,StressSession,3.2.3,59.556175466185344,
24,green,440,1.0,,,,,,0,23,23,23,,,,,,,,,,,,,,,,,,,,,lp2,002,2019_Sep_24_1639,StressSession,3.2.3,59.556175466185344,
25,green,440,1.0,,,,,,0,24,24,24,,,,,,,,,,,,,,,,,,,,,lp2,002,2019_Sep_24_1639,StressSession,3.2.3,59.556175466185344,
26,green,440,1.0,,,,,,0,25,25,25,,,,,,,,,,,,,,,,,,,,,lp2,002,2019_Sep_24_1639,StressSession,3.2.3,59.556175466185344,
27,green,440,1.0,,,,,,0,26,26,26,,,,,,,,,,,,,,,,,,,,,lp2,002,2019_Sep_24_1639,StressSession,3.2.3,59.556175466185344,
28,green,440,1.0,,,,,,0,27,27,27,,,,,,,,,,,,,,,,,,,,,lp2,002,2019_Sep_24_1639,StressSession,3.2.3,59.556175466185344,
29,green,440,1.0,,,,,,0,28,28,28,,,,,,,,,,,,,,,,,,,,,lp2,002,2019_Sep_24_1639,StressSession,3.2.3,59.556175466185344,
30,green,440,1.0,,,,,,0,29,29,29,,,,,,,,,,,,,,,,,,,,,lp2,002,2019_Sep_24_1639,StressSession,3.2.3,59.556175466185344,
31,green,440,1.0,,,,,,0,30,30,30,,,,,,,,,,,,,,,,,,,,,lp2,002,2019_Sep_24_1639,StressSession,3.2.3,59.556175466185344,
32,green,440,1.0,,,,,,0,31,31,31,,,,,,,,,,,,,,,,,,,,,lp2,002,2019_Sep_24_1639,StressSession,3.2.3,59.556175466185344,
33,green,440,1.0,,,,,,0,32,32,32,,,,,,,,,,,,,,,,,,,,,lp2,002,2019_Sep_24_1639,StressSession,3.2.3,59.556175466185344,
34,green,440,1.0,,,,,,0,33,33,33,,,,,,,,,,,,,,,,,,,,,lp2,002,2019_Sep_24_1639,StressSession,3.2.3,59.556175466185344,
35,green,440,1.0,,,,,,0,34,34,34,,,,,,,,,,,,,,,,,,,,,lp2,002,2019_Sep_24_1639,StressSession,3.2.3,59.556175466185344,
36,green,440,1.0,,,,,,0,35,35,35,,,,,,,,,,,,,,,,,,,,,lp2,002,2019_Sep_24_1639,StressSession,3.2.3,59.556175466185344,
37,green,440,1.0,,,,,,0,36,36,36,,,,,,,,,,,,,,,,,,,,,lp2,002,2019_Sep_24_1639,StressSession,3.2.3,59.556175466185344,
38,green,440,1.0,,,,,,0,37,37,37,,,,,,,,,,,,,,,,,,,,,lp2,002,2019_Sep_24_1639,StressSession,3.2.3,59.556175466185344,
39,green,440,1.0,,,,,,0,38,38,38,,,,,,,,,,,,,,,,,,,,,lp2,002,2019_Sep_24_1639,StressSession,3.2.3,59.556175466185344,
40,green,440,1.0,,,,,,0,39,39,39,,,,,,,,,,,,,,,,,,,,,lp2,002,2019_Sep_24_1639,StressSession,3.2.3,59.556175466185344,
41,green,440,1.0,,,,,,0,40,40,40,,,,,,,,,,,,,,,,,,,,,lp2,002,2019_Sep_24_1639,StressSession,3.2.3,59.556175466185344,
42,green,440,1.0,,,,,,0,41,41,41,,,,,,,,,,,,,,,,,,,,,lp2,002,2019_Sep_24_1639,StressSession,3.2.3,59.556175466185344,
43,green,440,1.0,,,,,,0,42,42,42,,,,,,,,,,,,,,,,,,,,,lp2,002,2019_Sep_24_1639,StressSession,3.2.3,59.556175466185344,
44,green,440,1.0,,,,,,0,43,43,43,,,,,,,,,,,,,,,,,,,,,lp2,002,2019_Sep_24_1639,StressSession,3.2.3,59.556175466185344,
45,green,440,1.0,,,,,,0,44,44,44,,,,,,,,,,,,,,,,,,,,,lp2,002,2019_Sep_24_1639,StressSession,3.2.3,59.556175466185344,
46,green,440,1.0,,,,,,0,45,45,45,,,,,,,,,,,,,,,,,,,,,lp2,002,2019_Sep_24_1639,StressSession,3.2.3,59.556175466185344,
47,green,440,1.0,,,,,,0,46,46,46,,,,,,,,,,,,,,,,,,,,,lp2,002,2019_Sep_24_1639,StressSession,3.2.3,59.556175466185344,
48,green,440,1.0,,,,,,0,47,47,47,,,,,,,,,,,,,,,,,,,,,lp2,002,2019_Sep_24_1639,StressSession,3.2.3,59.556175466185344,
49,green,440,1.0,,,,,,0,48,48,48,,,,,,,,,,,,,,,,,,,,,lp2,002,2019_Sep_24_1639,StressSession,3.2.3,59.556175466185344,
50,green,440,1.0,,,,,,0,49,49,49,,,,,,,,,,,,,,,,,,,,,lp2,002,2019_Sep_24_1639,StressSession,3.2.3,59.556175466185344,
51,green,440,1.0,,,,,,0,50,50,50,,,,,,,,,,,,,,,,,,,,,lp2,002,2019_Sep_24_1639,StressSession,3.2.3,59.556175466185344,
52,green,440,1.0,,,,,,0,51,51,51,,,,,,,,,,,,,,,,,,,,,lp2,002,2019_Sep_24_1639,StressSession,3.2.3,59.556175466185344,
53,green,440,1.0,,,,,,0,52,52,52,,,,,,,,,,,,,,,,,,,,,lp2,002,2019_Sep_24_1639,StressSession,3.2.3,59.556175466185344,
54,green,440,1.0,,,,,,0,53,53,53,,,,,,,,,,,,,,,,,,,,,lp2,002,2019_Sep_24_1639,StressSession,3.2.3,59.556175466185344,
55,green,440,1.0,,,,,,0,54,54,54,,,,,,,,,,,,,,,,,,,,,lp2,002,2019_Sep_24_1639,StressSession,3.2.3,59.556175466185344,
56,green,440,1.0,,,,,,0,55,55,55,,,,,,,,,,,,,,,,,,,,,lp2,002,2019_Sep_24_1639,StressSession,3.2.3,59.556175466185344,
57,green,440,1.0,,,,,,0,56,56,56,,,,,,,,,,,,,,,,,,,,,lp2,002,2019_Sep_24_1639,StressSession,3.2.3,59.556175466185344,
58,green,440,1.0,,,,,,0,57,57,57,,,,,,,,,,,,,,,,,,,,,lp2,002,2019_Sep_24_1639,StressSession,3.2.3,59.556175466185344,
59,green,440,1.0,,,,,,0,58,58,58,,,,,,,,,,,,,,,,,,,,,lp2,002,2019_Sep_24_1639,StressSession,3.2.3,59.556175466185344,
60,green,440,1.0,,,,,,0,59,59,59,,,,,,,,,,,,,,,,,,,,,lp2,002,2019_Sep_24_1639,StressSession,3.2.3,59.556175466185344,
61,green,440,1.0,,,,,,0,60,60,60,,,,,,,,,,,,,,,,,,,,,lp2,002,2019_Sep_24_1639,StressSession,3.2.3,59.556175466185344,
62,green,440,1.0,,,,,,0,61,61,61,,,,,,,,,,,,,,,,,,,,,lp2,002,2019_Sep_24_1639,StressSession,3.2.3,59.556175466185344,
63,green,440,1.0,,,,,,0,62,62,62,,,,,,,,,,,,,,,,,,,,,lp2,002,2019_Sep_24_1639,StressSession,3.2.3,59.556175466185344,
64,green,440,1.0,,,,,,0,63,63,63,,,,,,,,,,,,,,,,,,,,,lp2,002,2019_Sep_24_1639,StressSession,3.2.3,59.556175466185344,
65,green,440,1.0,,,,,,0,64,64,64,,,,,,,,,,,,,,,,,,,,,lp2,002,2019_Sep_24_1639,StressSession,3.2.3,59.556175466185344,
66,green,440,1.0,,,,,,0,65,65,65,,,,,,,,,,,,,,,,,,,,,lp2,002,2019_Sep_24_1639,StressSession,3.2.3,59.556175466185344,
67,green,440,1.0,,,,,,0,66,66,66,,,,,,,,,,,,,,,,,,,,,lp2,002,2019_Sep_24_1639,StressSession,3.2.3,59.556175466185344,
68,green,440,1.0,,,,,,0,67,67,67,,,,,,,,,,,,,,,,,,,,,lp2,002,2019_Sep_24_1639,StressSession,3.2.3,59.556175466185344,
69,green,440,1.0,,,,,,0,68,68,68,,,,,,,,,,,,,,,,,,,,,lp2,002,2019_Sep_24_1639,StressSession,3.2.3,59.556175466185344,
70,green,440,1.0,,,,,,0,69,69,69,,,,,,,,,,,,,,,,,,,,,lp2,002,2019_Sep_24_1639,StressSession,3.2.3,59.556175466185344,
71,green,440,1.0,,,,,,0,70,70,70,,,,,,,,,,,,,,,,,,,,,lp2,002,2019_Sep_24_1639,StressSession,3.2.3,59.556175466185344,
72,green,440,1.0,,,,,,0,71,71,71,,,,,,,,,,,,,,,,,,,,,lp2,002,2019_Sep_24_1639,StressSession,3.2.3,59.556175466185344,
73,green,440,1.0,,,,,,0,72,72,72,,,,,,,,,,,,,,,,,,,,,lp2,002,2019_Sep_24_1639,StressSession,3.2.3,59.556175466185344,
74,green,440,1.0,,,,,,0,73,73,73,,,,,,,,,,,,,,,,,,,,,lp2,002,2019_Sep_24_1639,StressSession,3.2.3,59.556175466185344,
75,green,440,1.0,,,,,,0,74,74,74,,,,,,,,,,,,,,,,,,,,,lp2,002,2019_Sep_24_1639,StressSession,3.2.3,59.556175466185344,
76,green,440,1.0,,,,,,0,75,75,75,,,,,,,,,,,,,,,,,,,,,lp2,002,2019_Sep_24_1639,StressSession,3.2.3,59.556175466185344,
77,green,440,1.0,,,,,,0,76,76,76,,,,,,,,,,,,,,,,,,,,,lp2,002,2019_Sep_24_1639,StressSession,3.2.3,59.556175466185344,
78,green,440,1.0,,,,,,0,77,77,77,,,,,,,,,,,,,,,,,,,,,lp2,002,2019_Sep_24_1639,StressSession,3.2.3,59.556175466185344,
79,green,440,1.0,,,,,,0,78,78,78,,,,,,,,,,,,,,,,,,,,,lp2,002,2019_Sep_24_1639,StressSession,3.2.3,59.556175466185344,
80,green,440,1.0,,,,,,0,79,79,79,,,,,,,,,,,,,,,,,,,,,lp2,002,2019_Sep_24_1639,StressSession,3.2.3,59.556175466185344,
81,green,440,1.0,,,,,,0,80,80,80,,,,,,,,,,,,,,,,,,,,,lp2,002,2019_Sep_24_1639,StressSession,3.2.3,59.556175466185344,
82,green,440,1.0,,,,,,0,81,81,81,,,,,,,,,,,,,,,,,,,,,lp2,002,2019_Sep_24_1639,StressSession,3.2.3,59.556175466185344,
83,green,440,1.0,,,,,,0,82,82,82,,,,,,,,,,,,,,,,,,,,,lp2,002,2019_Sep_24_1639,StressSession,3.2.3,59.556175466185344,
84,green,440,1.0,,,,,,0,83,83,83,,,,,,,,,,,,,,,,,,,,,lp2,002,2019_Sep_24_1639,StressSession,3.2.3,59.556175466185344,
85,green,440,1.0,,,,,,0,84,84,84,,,,,,,,,,,,,,,,,,,,,lp2,002,2019_Sep_24_1639,StressSession,3.2.3,59.556175466185344,
86,green,440,1.0,,,,,,0,85,85,85,,,,,,,,,,,,,,,,,,,,,lp2,002,2019_Sep_24_1639,StressSession,3.2.3,59.556175466185344,
87,green,440,1.0,,,,,,0,86,86,86,,,,,,,,,,,,,,,,,,,,,lp2,002,2019_Sep_24_1639,StressSession,3.2.3,59.556175466185344,
88,green,440,1.0,,,,,,0,87,87,87,,,,,,,,,,,,,,,,,,,,,lp2,002,2019_Sep_24_1639,StressSession,3.2.3,59.556175466185344,
89,green,440,1.0,,,,,,0,88,88,88,,,,,,,,,,,,,,,,,,,,,lp2,002,2019_Sep_24_1639,StressSession,3.2.3,59.556175466185344,
90,green,440,1.0,,,,,,0,89,89,89,,,,,,,,,,,,,,,,,,,,,lp2,002,2019_Sep_24_1639,StressSession,3.2.3,59.556175466185344,
91,green,440,1.0,,,,,,0,90,90,90,,,,,,,,,,,,,,,,,,,,,lp2,002,2019_Sep_24_1639,StressSession,3.2.3,59.556175466185344,
92,green,440,1.0,,,,,,0,91,91,91,,,,,,,,,,,,,,,,,,,,,lp2,002,2019_Sep_24_1639,StressSession,3.2.3,59.556175466185344,
93,green,440,1.0,,,,,,0,92,92,92,,,,,,,,,,,,,,,,,,,,,lp2,002,2019_Sep_24_1639,StressSession,3.2.3,59.556175466185344,
94,green,440,1.0,,,,,,0,93,93,93,,,,,,,,,,,,,,,,,,,,,lp2,002,2019_Sep_24_1639,StressSession,3.2.3,59.556175466185344,
95,green,440,1.0,,,,,,0,94,94,94,,,,,,,,,,,,,,,,,,,,,lp2,002,2019_Sep_24_1639,StressSession,3.2.3,59.556175466185344,
96,green,440,1.0,,,,,,0,95,95,95,,,,,,,,,,,,,,,,,,,,,lp2,002,2019_Sep_24_1639,StressSession,3.2.3,59.556175466185344,
97,green,440,1.0,,,,,,0,96,96,96,,,,,,,,,,,,,,,,,,,,,lp2,002,2019_Sep_24_1639,StressSession,3.2.3,59.556175466185344,
98,green,440,1.0,,,,,,0,97,97,97,,,,,,,,,,,,,,,,,,,,,lp2,002,2019_Sep_24_1639,StressSession,3.2.3,59.556175466185344,
99,green,440,1.0,,,,,,0,98,98,98,,,,,,,,,,,,,,,,,,,,,lp2,002,2019_Sep_24_1639,StressSession,3.2.3,59.556175466185344,
100,green,440,1.0,,,,,,0,99,99,99,,,,,,,,,,,,,,,,,,,,,lp2,002,2019_Sep_24_1639,StressSession,3.2.3,59.556175466185344,
101,green,440,1.0,,,,,,0,100,100,100,,,,,,,,,,,,,,,,,,,,,lp2,002,2019_Sep_24_1639,StressSession,3.2.3,59.556175466185344,
102,green,440,1.0,,,,,,0,101,101,101,,,,,,,,,,,,,,,,,,,,,lp2,002,2019_Sep_24_1639,StressSession,3.2.3,59.556175466185344,
103,green,440,1.0,,,,,,0,102,102,102,,,,,,,,,,,,,,,,,,,,,lp2,002,2019_Sep_24_1639,StressSession,3.2.3,59.556175466185344,
104,green,440,1.0,,,,,,0,103,103,103,,,,,,,,,,,,,,,,,,,,,lp2,002,2019_Sep_24_1639,StressSession,3.2.3,59.556175466185344,
105,green,440,1.0,,,,,,0,104,104,104,,,,,,,,,,,,,,,,,,,,,lp2,002,2019_Sep_24_1639,StressSession,3.2.3,59.556175466185344,
106,green,440,1.0,,,,,,0,105,105,105,,,,,,,,,,,,,,,,,,,,,lp2,002,2019_Sep_24_1639,StressSession,3.2.3,59.556175466185344,
107,green,440,1.0,,,,,,0,106,106,106,,,,,,,,,,,,,,,,,,,,,lp2,002,2019_Sep_24_1639,StressSession,3.2.3,59.556175466185344,
108,green,440,1.0,,,,,,0,107,107,107,,,,,,,,,,,,,,,,,,,,,lp2,002,2019_Sep_24_1639,StressSession,3.2.3,59.556175466185344,
109,green,440,1.0,,,,,,0,108,108,108,,,,,,,,,,,,,,,,,,,,,lp2,002,2019_Sep_24_1639,StressSession,3.2.3,59.556175466185344,
110,green,440,1.0,,,,,,0,109,109,109,,,,,,,,,,,,,,,,,,,,,lp2,002,2019_Sep_24_1639,StressSession,3.2.3,59.556175466185344,
111,green,440,1.0,,,,,,0,110,110,110,,,,,,,,,,,,,,,,,,,,,lp2,002,2019_Sep_24_1639,StressSession,3.2.3,59.556175466185344,
112,green,440,1.0,,,,,,0,111,111,111,,,,,,,,,,,,,,,,,,,,,lp2,002,2019_Sep_24_1639,StressSession,3.2.3,59.556175466185344,
113,green,440,1.0,,,,,,0,112,112,112,,,,,,,,,,,,,,,,,,,,,lp2,002,2019_Sep_24_1639,StressSession,3.2.3,59.556175466185344,
114,green,440,1.0,,,,,,0,113,113,113,,,,,,,,,,,,,,,,,,,,,lp2,002,2019_Sep_24_1639,StressSession,3.2.3,59.556175466185344,
115,green,440,1.0,,,,,,0,114,114,114,,,,,,,,,,,,,,,,,,,,,lp2,002,2019_Sep_24_1639,StressSession,3.2.3,59.556175466185344,
116,green,440,1.0,,,,,,0,115,115,115,,,,,,,,,,,,,,,,,,,,,lp2,002,2019_Sep_24_1639,StressSession,3.2.3,59.556175466185344,
117,green,440,1.0,,,,,,0,116,116,116,,,,,,,,,,,,,,,,,,,,,lp2,002,2019_Sep_24_1639,StressSession,3.2.3,59.556175466185344,
118,green,440,1.0,,,,,,0,117,117,117,,,,,,,,,,,,,,,,,,,,,lp2,002,2019_Sep_24_1639,StressSession,3.2.3,59.556175466185344,
119,green,440,1.0,,,,,,0,118,118,118,,,,,,,,,,,,,,,,,,,,,lp2,002,2019_Sep_24_1639,StressSession,3.2.3,59.556175466185344,
120,green,440,1.0,,,,,,0,119,119,119,,,,,,,,,,,,,,,,,,,,,lp2,002,2019_Sep_24_1639,StressSession,3.2.3,59.556175466185344,
121,green,440,1.0,,,,,,0,120,120,120,,,,,,,,,,,,,,,,,,,,,lp2,002,2019_Sep_24_1639,StressSession,3.2.3,59.556175466185344,
122,green,440,1.0,,,,,,0,121,121,121,,,,,,,,,,,,,,,,,,,,,lp2,002,2019_Sep_24_1639,StressSession,3.2.3,59.556175466185344,
123,green,440,1.0,,,,,,0,122,122,122,,,,,,,,,,,,,,,,,,,,,lp2,002,2019_Sep_24_1639,StressSession,3.2.3,59.556175466185344,
124,green,440,1.0,,,,,,0,123,123,123,,,,,,,,,,,,,,,,,,,,,lp2,002,2019_Sep_24_1639,StressSession,3.2.3,59.556175466185344,
125,green,440,1.0,,,,,,0,124,124,124,,,,,,,,,,,,,,,,,,,,,lp2,002,2019_Sep_24_1639,StressSession,3.2.3,59.556175466185344,
126,green,440,1.0,,,,,,0,125,125,125,,,,,,,,,,,,,,,,,,,,,lp2,002,2019_Sep_24_1639,StressSession,3.2.3,59.556175466185344,
127,green,440,1.0,,,,,,0,126,126,126,,,,,,,,,,,,,,,,,,,,,lp2,002,2019_Sep_24_1639,StressSession,3.2.3,59.556175466185344,
128,green,440,1.0,,,,,,0,127,127,127,,,,,,,,,,,,,,,,,,,,,lp2,002,2019_Sep_24_1639,StressSession,3.2.3,59.556175466185344,
129,green,440,1.0,,,,,,0,128,128,128,,,,,,,,,,,,,,,,,,,,,lp2,002,2019_Sep_24_1639,StressSession,3.2.3,59.556175466185344,
130,green,440,1.0,,,,,,0,129,129,129,,,,,,,,,,,,,,,,,,,,,lp2,002,2019_Sep_24_1639,StressSession,3.2.3,59.556175466185344,
131,green,440,1.0,,,,,,0,130,130,130,,,,,,,,,,,,,,,,,,,,,lp2,002,2019_Sep_24_1639,StressSession,3.2.3,59.556175466185344,
132,green,440,1.0,,,,,,0,131,131,131,,,,,,,,,,,,,,,,,,,,,lp2,002,2019_Sep_24_1639,StressSession,3.2.3,59.556175466185344,
133,green,440,1.0,,,,,,0,132,132,132,,,,,,,,,,,,,,,,,,,,,lp2,002,2019_Sep_24_1639,StressSession,3.2.3,59.556175466185344,
134,green,440,1.0,,,,,,0,133,133,133,,,,,,,,,,,,,,,,,,,,,lp2,002,2019_Sep_24_1639,StressSession,3.2.3,59.556175466185344,
135,green,440,1.0,,,,,,0,134,134,134,,,,,,,,,,,,,,,,,,,,,lp2,002,2019_Sep_24_1639,StressSession,3.2.3,59.556175466185344,
136,green,440,1.0,,,,,,0,135,135,135,,,,,,,,,,,,,,,,,,,,,lp2,002,2019_Sep_24_1639,StressSession,3.2.3,59.556175466185344,
137,green,440,1.0,,,,,,0,136,136,136,,,,,,,,,,,,,,,,,,,,,lp2,002,2019_Sep_24_1639,StressSession,3.2.3,59.556175466185344,
138,green,440,1.0,,,,,,0,137,137,137,,,,,,,,,,,,,,,,,,,,,lp2,002,2019_Sep_24_1639,StressSession,3.2.3,59.556175466185344,
139,green,440,1.0,,,,,,0,138,138,138,,,,,,,,,,,,,,,,,,,,,lp2,002,2019_Sep_24_1639,StressSession,3.2.3,59.556175466185344,
140,green,440,1.0,,,,,,0,139,139,139,,,,,,,,,,,,,,,,,,,,,lp2,002,2019_Sep_24_1639,StressSession,3.2.3,59.556175466185344,
141,green,440,1.0,,,,,,0,140,140,140,,,,,,,,,,,,,,,,,,,,,lp2,002,2019_Sep_24_1639,StressSession,3.2.3,59.556175466185344,
142,green,440,1.0,,,,,,0,141,141,141,,,,,,,,,,,,,,,,,,,,,lp2,002,2019_Sep_24_1639,StressSession,3.2.3,59.556175466185344,
143,green,440,1.0,,,,,,0,142,142,142,,,,,,,,,,,,,,,,,,,,,lp2,002,2019_Sep_24_1639,StressSession,3.2.3,59.556175466185344,
144,green,440,1.0,,,,,,0,143,143,143,,,,,,,,,,,,,,,,,,,,,lp2,002,2019_Sep_24_1639,StressSession,3.2.3,59.556175466185344,
145,green,440,1.0,,,,,,0,144,144,144,,,,,,,,,,,,,,,,,,,,,lp2,002,2019_Sep_24_1639,StressSession,3.2.3,59.556175466185344,
146,green,440,1.0,,,,,,0,145,145,145,,,,,,,,,,,,,,,,,,,,,lp2,002,2019_Sep_24_1639,StressSession,3.2.3,59.556175466185344,
147,green,440,1.0,,,,,,0,146,146,146,,,,,,,,,,,,,,,,,,,,,lp2,002,2019_Sep_24_1639,StressSession,3.2.3,59.556175466185344,
148,green,440,1.0,,,,,,0,147,147,147,,,,,,,,,,,,,,,,,,,,,lp2,002,2019_Sep_24_1639,StressSession,3.2.3,59.556175466185344,
149,green,440,1.0,,,,,,0,148,148,148,,,,,,,,,,,,,,,,,,,,,lp2,002,2019_Sep_24_1639,StressSession,3.2.3,59.556175466185344,
150,green,440,1.0,,,,,,0,149,149,149,,,,,,,,,,,,,,,,,,,,,lp2,002,2019_Sep_24_1639,StressSession,3.2.3,59.556175466185344,
151,green,440,1.0,,,,,,0,150,150,150,,,,,,,,,,,,,,,,,,,,,lp2,002,2019_Sep_24_1639,StressSession,3.2.3,59.556175466185344,
152,green,440,1.0,,,,,,0,151,151,151,,,,,,,,,,,,,,,,,,,,,lp2,002,2019_Sep_24_1639,StressSession,3.2.3,59.556175466185344,
153,green,440,1.0,,,,,,0,152,152,152,,,,,,,,,,,,,,,,,,,,,lp2,002,2019_Sep_24_1639,StressSession,3.2.3,59.556175466185344,
154,green,440,1.0,,,,,,0,153,153,153,,,,,,,,,,,,,,,,,,,,,lp2,002,2019_Sep_24_1639,StressSession,3.2.3,59.556175466185344,
155,green,440,1.0,,,,,,0,154,154,154,,,,,,,,,,,,,,,,,,,,,lp2,002,2019_Sep_24_1639,StressSession,3.2.3,59.556175466185344,
156,green,440,1.0,,,,,,0,155,155,155,,,,,,,,,,,,,,,,,,,,,lp2,002,2019_Sep_24_1639,StressSession,3.2.3,59.556175466185344,
157,green,440,1.0,,,,,,0,156,156,156,,,,,,,,,,,,,,,,,,,,,lp2,002,2019_Sep_24_1639,StressSession,3.2.3,59.556175466185344,
158,green,440,1.0,,,,,,0,157,157,157,,,,,,,,,,,,,,,,,,,,,lp2,002,2019_Sep_24_1639,StressSession,3.2.3,59.556175466185344,
159,green,440,1.0,,,,,,0,158,158,158,,,,,,,,,,,,,,,,,,,,,lp2,002,2019_Sep_24_1639,StressSession,3.2.3,59.556175466185344,
160,green,440,1.0,,,,,,0,159,159,159,,,,,,,,,,,,,,,,,,,,,lp2,002,2019_Sep_24_1639,StressSession,3.2.3,59.556175466185344,
161,green,440,1.0,,,,,,0,160,160,160,,,,,,,,,,,,,,,,,,,,,lp2,002,2019_Sep_24_1639,StressSession,3.2.3,59.556175466185344,
162,green,440,1.0,,,,,,0,161,161,161,,,,,,,,,,,,,,,,,,,,,lp2,002,2019_Sep_24_1639,StressSession,3.2.3,59.556175466185344,
163,green,440,1.0,,,,,,0,162,162,162,,,,,,,,,,,,,,,,,,,,,lp2,002,2019_Sep_24_1639,StressSession,3.2.3,59.556175466185344,
164,green,440,1.0,,,,,,0,163,163,163,,,,,,,,,,,,,,,,,,,,,lp2,002,2019_Sep_24_1639,StressSession,3.2.3,59.556175466185344,
165,green,440,1.0,,,,,,0,164,164,164,,,,,,,,,,,,,,,,,,,,,lp2,002,2019_Sep_24_1639,StressSession,3.2.3,59.556175466185344,
166,green,440,1.0,,,,,,0,165,165,165,,,,,,,,,,,,,,,,,,,,,lp2,002,2019_Sep_24_1639,StressSession,3.2.3,59.556175466185344,
167,green,440,1.0,,,,,,0,166,166,166,,,,,,,,,,,,,,,,,,,,,lp2,002,2019_Sep_24_1639,StressSession,3.2.3,59.556175466185344,
168,green,440,1.0,,,,,,0,167,167,167,,,,,,,,,,,,,,,,,,,,,lp2,002,2019_Sep_24_1639,StressSession,3.2.3,59.556175466185344,
169,green,440,1.0,,,,,,0,168,168,168,,,,,,,,,,,,,,,,,,,,,lp2,002,2019_Sep_24_1639,StressSession,3.2.3,59.556175466185344,
170,green,440,1.0,,,,,,0,169,169,169,,,,,,,,,,,,,,,,,,,,,lp2,002,2019_Sep_24_1639,StressSession,3.2.3,59.556175466185344,
171,green,440,1.0,,,,,,0,170,170,170,,,,,,,,,,,,,,,,,,,,,lp2,002,2019_Sep_24_1639,StressSession,3.2.3,59.556175466185344,
172,green,440,1.0,,,,,,0,171,171,171,,,,,,,,,,,,,,,,,,,,,lp2,002,2019_Sep_24_1639,StressSession,3.2.3,59.556175466185344,
173,green,440,1.0,,,,,,0,172,172,172,,,,,,,,,,,,,,,,,,,,,lp2,002,2019_Sep_24_1639,StressSession,3.2.3,59.556175466185344,
174,green,440,1.0,,,,,,0,173,173,173,,,,,,,,,,,,,,,,,,,,,lp2,002,2019_Sep_24_1639,StressSession,3.2.3,59.556175466185344,
175,green,440,1.0,,,,,,0,174,174,174,,,,,,,,,,,,,,,,,,,,,lp2,002,2019_Sep_24_1639,StressSession,3.2.3,59.556175466185344,
176,green,440,1.0,,,,,,0,175,175,175,,,,,,,,,,,,,,,,,,,,,lp2,002,2019_Sep_24_1639,StressSession,3.2.3,59.556175466185344,
177,green,440,1.0,,,,,,0,176,176,176,,,,,,,,,,,,,,,,,,,,,lp2,002,2019_Sep_24_1639,StressSession,3.2.3,59.556175466185344,
178,green,440,1.0,,,,,,0,177,177,177,,,,,,,,,,,,,,,,,,,,,lp2,002,2019_Sep_24_1639,StressSession,3.2.3,59.556175466185344,
179,green,440,1.0,,,,,,0,178,178,178,,,,,,,,,,,,,,,,,,,,,lp2,002,2019_Sep_24_1639,StressSession,3.2.3,59.556175466185344,
180,yellow,880,0.5,,,,,,0,179,179,179,,,,,,,,,,,,,,,,,,,,,lp2,002,2019_Sep_24_1639,StressSession,3.2.3,59.556175466185344,
181,yellow,880,0.5,,,,,,0,180,180,180,,,,,,,,,,,,,,,,,,,,,lp2,002,2019_Sep_24_1639,StressSession,3.2.3,59.556175466185344,
182,yellow,880,0.5,,,,,,0,181,181,181,,,,,,,,,,,,,,,,,,,,,lp2,002,2019_Sep_24_1639,StressSession,3.2.3,59.556175466185344,
183,yellow,880,0.5,,,,,,0,182,182,182,,,,,,,,,,,,,,,,,,,,,lp2,002,2019_Sep_24_1639,StressSession,3.2.3,59.556175466185344,
184,yellow,880,0.5,,,,,,0,183,183,183,,,,,,,,,,,,,,,,,,,,,lp2,002,2019_Sep_24_1639,StressSession,3.2.3,59.556175466185344,
185,yellow,880,0.5,,,,,,0,184,184,184,,,,,,,,,,,,,,,,,,,,,lp2,002,2019_Sep_24_1639,StressSession,3.2.3,59.556175466185344,
186,yellow,880,0.5,,,,,,0,185,185,185,,,,,,,,,,,,,,,,,,,,,lp2,002,2019_Sep_24_1639,StressSession,3.2.3,59.556175466185344,
187,yellow,880,0.5,,,,,,0,186,186,186,,,,,,,,,,,,,,,,,,,,,lp2,002,2019_Sep_24_1639,StressSession,3.2.3,59.556175466185344,
188,yellow,880,0.5,,,,,,0,187,187,187,,,,,,,,,,,,,,,,,,,,,lp2,002,2019_Sep_24_1639,StressSession,3.2.3,59.556175466185344,
189,yellow,880,0.5,,,,,,0,188,188,188,,,,,,,,,,,,,,,,,,,,,lp2,002,2019_Sep_24_1639,StressSession,3.2.3,59.556175466185344,
190,yellow,880,0.5,,,,,,0,189,189,189,,,,,,,,,,,,,,,,,,,,,lp2,002,2019_Sep_24_1639,StressSession,3.2.3,59.556175466185344,
191,yellow,880,0.5,,,,,,0,190,190,190,,,,,,,,,,,,,,,,,,,,,lp2,002,2019_Sep_24_1639,StressSession,3.2.3,59.556175466185344,
192,yellow,880,0.5,,,,,,0,191,191,191,,,,,,,,,,,,,,,,,,,,,lp2,002,2019_Sep_24_1639,StressSession,3.2.3,59.556175466185344,
193,yellow,880,0.5,,,,,,0,192,192,192,,,,,,,,,,,,,,,,,,,,,lp2,002,2019_Sep_24_1639,StressSession,3.2.3,59.556175466185344,
194,yellow,880,0.5,,,,,,0,193,193,193,,,,,,,,,,,,,,,,,,,,,lp2,002,2019_Sep_24_1639,StressSession,3.2.3,59.556175466185344,
195,yellow,880,0.5,,,,,,0,194,194,194,,,,,,,,,,,,,,,,,,,,,lp2,002,2019_Sep_24_1639,StressSession,3.2.3,59.556175466185344,
196,yellow,880,0.5,,,,,,0,195,195,195,,,,,,,,,,,,,,,,,,,,,lp2,002,2019_Sep_24_1639,StressSession,3.2.3,59.556175466185344,
197,yellow,880,0.5,,,,,,0,196,196,196,,,,,,,,,,,,,,,,,,,,,lp2,002,2019_Sep_24_1639,StressSession,3.2.3,59.556175466185344,
198,yellow,880,0.5,,,,,,0,197,197,197,,,,,,,,,,,,,,,,,,,,,lp2,002,2019_Sep_24_1639,StressSession,3.2.3,59.556175466185344,
199,yellow,880,0.5,,,,,,0,198,198,198,,,,,,,,,,,,,,,,,,,,,lp2,002,2019_Sep_24_1639,StressSession,3.2.3,59.556175466185344,
200,yellow,880,0.5,,,,,,0,199,199,199,,,,,,,,,,,,,,,,,,,,,lp2,002,2019_Sep_24_1639,StressSession,3.2.3,59.556175466185344,
201,yellow,880,0.5,,,,,,0,200,200,200,,,,,,,,,,,,,,,,,,,,,lp2,002,2019_Sep_24_1639,StressSession,3.2.3,59.556175466185344,
202,yellow,880,0.5,,,,,,0,201,201,201,,,,,,,,,,,,,,,,,,,,,lp2,002,2019_Sep_24_1639,StressSession,3.2.3,59.556175466185344,
203,yellow,880,0.5,,,,,,0,202,202,202,,,,,,,,,,,,,,,,,,,,,lp2,002,2019_Sep_24_1639,StressSession,3.2.3,59.556175466185344,
204,yellow,880,0.5,,,,,,0,203,203,203,,,,,,,,,,,,,,,,,,,,,lp2,002,2019_Sep_24_1639,StressSession,3.2.3,59.556175466185344,
205,yellow,880,0.5,,,,,,0,204,204,204,,,,,,,,,,,,,,,,,,,,,lp2,002,2019_Sep_24_1639,StressSession,3.2.3,59.556175466185344,
206,yellow,880,0.5,,,,,,0,205,205,205,,,,,,,,,,,,,,,,,,,,,lp2,002,2019_Sep_24_1639,StressSession,3.2.3,59.556175466185344,
207,yellow,880,0.5,,,,,,0,206,206,206,,,,,,,,,,,,,,,,,,,,,lp2,002,2019_Sep_24_1639,StressSession,3.2.3,59.556175466185344,
208,yellow,880,0.5,,,,,,0,207,207,207,,,,,,,,,,,,,,,,,,,,,lp2,002,2019_Sep_24_1639,StressSession,3.2.3,59.556175466185344,
209,yellow,880,0.5,,,,,,0,208,208,208,,,,,,,,,,,,,,,,,,,,,lp2,002,2019_Sep_24_1639,StressSession,3.2.3,59.556175466185344,
210,yellow,880,0.5,,,,,,0,209,209,209,,,,,,,,,,,,,,,,,,,,,lp2,002,2019_Sep_24_1639,StressSession,3.2.3,59.556175466185344,
211,yellow,880,0.5,,,,,,0,210,210,210,,,,,,,,,,,,,,,,,,,,,lp2,002,2019_Sep_24_1639,StressSession,3.2.3,59.556175466185344,
212,yellow,880,0.5,,,,,,0,211,211,211,,,,,,,,,,,,,,,,,,,,,lp2,002,2019_Sep_24_1639,StressSession,3.2.3,59.556175466185344,
213,yellow,880,0.5,,,,,,0,212,212,212,,,,,,,,,,,,,,,,,,,,,lp2,002,2019_Sep_24_1639,StressSession,3.2.3,59.556175466185344,
214,yellow,880,0.5,,,,,,0,213,213,213,,,,,,,,,,,,,,,,,,,,,lp2,002,2019_Sep_24_1639,StressSession,3.2.3,59.556175466185344,
215,yellow,880,0.5,,,,,,0,214,214,214,,,,,,,,,,,,,,,,,,,,,lp2,002,2019_Sep_24_1639,StressSession,3.2.3,59.556175466185344,
216,yellow,880,0.5,,,,,,0,215,215,215,,,,,,,,,,,,,,,,,,,,,lp2,002,2019_Sep_24_1639,StressSession,3.2.3,59.556175466185344,
217,yellow,880,0.5,,,,,,0,216,216,216,,,,,,,,,,,,,,,,,,,,,lp2,002,2019_Sep_24_1639,StressSession,3.2.3,59.556175466185344,
218,yellow,880,0.5,,,,,,0,217,217,217,,,,,,,,,,,,,,,,,,,,,lp2,002,2019_Sep_24_1639,StressSession,3.2.3,59.556175466185344,
219,yellow,880,0.5,,,,,,0,218,218,218,,,,,,,,,,,,,,,,,,,,,lp2,002,2019_Sep_24_1639,StressSession,3.2.3,59.556175466185344,
220,yellow,880,0.5,,,,,,0,219,219,219,,,,,,,,,,,,,,,,,,,,,lp2,002,2019_Sep_24_1639,StressSession,3.2.3,59.556175466185344,
221,yellow,880,0.5,,,,,,0,220,220,220,,,,,,,,,,,,,,,,,,,,,lp2,002,2019_Sep_24_1639,StressSession,3.2.3,59.556175466185344,
222,yellow,880,0.5,,,,,,0,221,221,221,,,,,,,,,,,,,,,,,,,,,lp2,002,2019_Sep_24_1639,StressSession,3.2.3,59.556175466185344,
223,yellow,880,0.5,,,,,,0,222,222,222,,,,,,,,,,,,,,,,,,,,,lp2,002,2019_Sep_24_1639,StressSession,3.2.3,59.556175466185344,
224,yellow,880,0.5,,,,,,0,223,223,223,,,,,,,,,,,,,,,,,,,,,lp2,002,2019_Sep_24_1639,StressSession,3.2.3,59.556175466185344,
225,yellow,880,0.5,,,,,,0,224,224,224,,,,,,,,,,,,,,,,,,,,,lp2,002,2019_Sep_24_1639,StressSession,3.2.3,59.556175466185344,
226,yellow,880,0.5,,,,,,0,225,225,225,,,,,,,,,,,,,,,,,,,,,lp2,002,2019_Sep_24_1639,StressSession,3.2.3,59.556175466185344,
227,yellow,880,0.5,,,,,,0,226,226,226,,,,,,,,,,,,,,,,,,,,,lp2,002,2019_Sep_24_1639,StressSession,3.2.3,59.556175466185344,
228,yellow,880,0.5,,,,,,0,227,227,227,,,,,,,,,,,,,,,,,,,,,lp2,002,2019_Sep_24_1639,StressSession,3.2.3,59.556175466185344,
229,yellow,880,0.5,,,,,,0,228,228,228,,,,,,,,,,,,,,,,,,,,,lp2,002,2019_Sep_24_1639,StressSession,3.2.3,59.556175466185344,
230,yellow,880,0.5,,,,,,0,229,229,229,,,,,,,,,,,,,,,,,,,,,lp2,002,2019_Sep_24_1639,StressSession,3.2.3,59.556175466185344,
231,yellow,880,0.5,,,,,,0,230,230,230,,,,,,,,,,,,,,,,,,,,,lp2,002,2019_Sep_24_1639,StressSession,3.2.3,59.556175466185344,
232,yellow,880,0.5,,,,,,0,231,231,231,,,,,,,,,,,,,,,,,,,,,lp2,002,2019_Sep_24_1639,StressSession,3.2.3,59.556175466185344,
233,yellow,880,0.5,,,,,,0,232,232,232,,,,,,,,,,,,,,,,,,,,,lp2,002,2019_Sep_24_1639,StressSession,3.2.3,59.556175466185344,
234,yellow,880,0.5,,,,,,0,233,233,233,,,,,,,,,,,,,,,,,,,,,lp2,002,2019_Sep_24_1639,StressSession,3.2.3,59.556175466185344,
235,yellow,880,0.5,,,,,,0,234,234,234,,,,,,,,,,,,,,,,,,,,,lp2,002,2019_Sep_24_1639,StressSession,3.2.3,59.556175466185344,
236,yellow,880,0.5,,,,,,0,235,235,235,,,,,,,,,,,,,,,,,,,,,lp2,002,2019_Sep_24_1639,StressSession,3.2.3,59.556175466185344,
237,yellow,880,0.5,,,,,,0,236,236,236,,,,,,,,,,,,,,,,,,,,,lp2,002,2019_Sep_24_1639,StressSession,3.2.3,59.556175466185344,
238,yellow,880,0.5,,,,,,0,237,237,237,,,,,,,,,,,,,,,,,,,,,lp2,002,2019_Sep_24_1639,StressSession,3.2.3,59.556175466185344,
239,yellow,880,0.5,,,,,,0,238,238,238,,,,,,,,,,,,,,,,,,,,,lp2,002,2019_Sep_24_1639,StressSession,3.2.3,59.556175466185344,
240,red,1760,0.5,,,,,,0,239,239,239,,,,,,,,,,,,,,,,,,,,,lp2,002,2019_Sep_24_1639,StressSession,3.2.3,59.556175466185344,
241,red,1760,0.5,,,,,,0,240,240,240,,,,,,,,,,,,,,,,,,,,,lp2,002,2019_Sep_24_1639,StressSession,3.2.3,59.556175466185344,
242,red,1760,0.5,,,,,,0,241,241,241,,,,,,,,,,,,,,,,,,,,,lp2,002,2019_Sep_24_1639,StressSession,3.2.3,59.556175466185344,
243,red,1760,0.5,,,,,,0,242,242,242,,,,,,,,,,,,,,,,,,,,,lp2,002,2019_Sep_24_1639,StressSession,3.2.3,59.556175466185344,
244,red,1760,0.5,,,,,,0,243,243,243,,,,,,,,,,,,,,,,,,,,,lp2,002,2019_Sep_24_1639,StressSession,3.2.3,59.556175466185344,
245,red,1760,0.5,,,,,,0,244,244,244,,,,,,,,,,,,,,,,,,,,,lp2,002,2019_Sep_24_1639,StressSession,3.2.3,59.556175466185344,
246,red,1760,0.5,,,,,,0,245,245,245,,,,,,,,,,,,,,,,,,,,,lp2,002,2019_Sep_24_1639,StressSession,3.2.3,59.556175466185344,
247,red,1760,0.5,,,,,,0,246,246,246,,,,,,,,,,,,,,,,,,,,,lp2,002,2019_Sep_24_1639,StressSession,3.2.3,59.556175466185344,
248,red,1760,0.5,,,,,,0,247,247,247,,,,,,,,,,,,,,,,,,,,,lp2,002,2019_Sep_24_1639,StressSession,3.2.3,59.556175466185344,
249,red,1760,0.5,,,,,,0,248,248,248,,,,,,,,,,,,,,,,,,,,,lp2,002,2019_Sep_24_1639,StressSession,3.2.3,59.556175466185344,
250,red,1760,0.5,,,,,,0,249,249,249,,,,,,,,,,,,,,,,,,,,,lp2,002,2019_Sep_24_1639,StressSession,3.2.3,59.556175466185344,
251,red,1760,0.5,,,,,,0,250,250,250,,,,,,,,,,,,,,,,,,,,,lp2,002,2019_Sep_24_1639,StressSession,3.2.3,59.556175466185344,
252,red,1760,0.5,,,,,,0,251,251,251,,,,,,,,,,,,,,,,,,,,,lp2,002,2019_Sep_24_1639,StressSession,3.2.3,59.556175466185344,
253,red,1760,0.5,,,,,,0,252,252,252,,,,,,,,,,,,,,,,,,,,,lp2,002,2019_Sep_24_1639,StressSession,3.2.3,59.556175466185344,
254,red,1760,0.5,,,,,,0,253,253,253,,,,,,,,,,,,,,,,,,,,,lp2,002,2019_Sep_24_1639,StressSession,3.2.3,59.556175466185344,
255,red,1760,0.5,,,,,,0,254,254,254,,,,,,,,,,,,,,,,,,,,,lp2,002,2019_Sep_24_1639,StressSession,3.2.3,59.556175466185344,
256,red,1760,0.5,,,,,,0,255,255,255,,,,,,,,,,,,,,,,,,,,,lp2,002,2019_Sep_24_1639,StressSession,3.2.3,59.556175466185344,
257,red,1760,0.5,,,,,,0,256,256,256,,,,,,,,,,,,,,,,,,,,,lp2,002,2019_Sep_24_1639,StressSession,3.2.3,59.556175466185344,
258,red,1760,0.5,,,,,,0,257,257,257,,,,,,,,,,,,,,,,,,,,,lp2,002,2019_Sep_24_1639,StressSession,3.2.3,59.556175466185344,
259,red,1760,0.5,,,,,,0,258,258,258,,,,,,,,,,,,,,,,,,,,,lp2,002,2019_Sep_24_1639,StressSession,3.2.3,59.556175466185344,
260,red,1760,0.5,,,,,,0,259,259,259,,,,,,,,,,,,,,,,,,,,,lp2,002,2019_Sep_24_1639,StressSession,3.2.3,59.556175466185344,
261,red,1760,0.5,,,,,,0,260,260,260,,,,,,,,,,,,,,,,,,,,,lp2,002,2019_Sep_24_1639,StressSession,3.2.3,59.556175466185344,
262,red,1760,0.5,,,,,,0,261,261,261,,,,,,,,,,,,,,,,,,,,,lp2,002,2019_Sep_24_1639,StressSession,3.2.3,59.556175466185344,
263,red,1760,0.5,,,,,,0,262,262,262,,,,,,,,,,,,,,,,,,,,,lp2,002,2019_Sep_24_1639,StressSession,3.2.3,59.556175466185344,
264,red,1760,0.5,,,,,,0,263,263,263,,,,,,,,,,,,,,,,,,,,,lp2,002,2019_Sep_24_1639,StressSession,3.2.3,59.556175466185344,
265,red,1760,0.5,,,,,,0,264,264,264,,,,,,,,,,,,,,,,,,,,,lp2,002,2019_Sep_24_1639,StressSession,3.2.3,59.556175466185344,
266,red,1760,0.5,,,,,,0,265,265,265,,,,,,,,,,,,,,,,,,,,,lp2,002,2019_Sep_24_1639,StressSession,3.2.3,59.556175466185344,
267,red,1760,0.5,,,,,,0,266,266,266,,,,,,,,,,,,,,,,,,,,,lp2,002,2019_Sep_24_1639,StressSession,3.2.3,59.556175466185344,
268,red,1760,0.5,,,,,,0,267,267,267,,,,,,,,,,,,,,,,,,,,,lp2,002,2019_Sep_24_1639,StressSession,3.2.3,59.556175466185344,
269,red,1760,0.5,,,,,,0,268,268,268,,,,,,,,,,,,,,,,,,,,,lp2,002,2019_Sep_24_1639,StressSession,3.2.3,59.556175466185344,
270,red,1760,0.5,,,,,,0,269,269,269,,,,,,,,,,,,,,,,,,,,,lp2,002,2019_Sep_24_1639,StressSession,3.2.3,59.556175466185344,
271,red,1760,0.5,,,,,,0,270,270,270,,,,,,,,,,,,,,,,,,,,,lp2,002,2019_Sep_24_1639,StressSession,3.2.3,59.556175466185344,
272,red,1760,0.5,,,,,,0,271,271,271,,,,,,,,,,,,,,,,,,,,,lp2,002,2019_Sep_24_1639,StressSession,3.2.3,59.556175466185344,
273,red,1760,0.5,,,,,,0,272,272,272,,,,,,,,,,,,,,,,,,,,,lp2,002,2019_Sep_24_1639,StressSession,3.2.3,59.556175466185344,
274,red,1760,0.5,,,,,,0,273,273,273,,,,,,,,,,,,,,,,,,,,,lp2,002,2019_Sep_24_1639,StressSession,3.2.3,59.556175466185344,
275,red,1760,0.5,,,,,,0,274,274,274,,,,,,,,,,,,,,,,,,,,,lp2,002,2019_Sep_24_1639,StressSession,3.2.3,59.556175466185344,
276,red,1760,0.5,,,,,,0,275,275,275,,,,,,,,,,,,,,,,,,,,,lp2,002,2019_Sep_24_1639,StressSession,3.2.3,59.556175466185344,
277,red,1760,0.5,,,,,,0,276,276,276,,,,,,,,,,,,,,,,,,,,,lp2,002,2019_Sep_24_1639,StressSession,3.2.3,59.556175466185344,
278,red,1760,0.5,,,,,,0,277,277,277,,,,,,,,,,,,,,,,,,,,,lp2,002,2019_Sep_24_1639,StressSession,3.2.3,59.556175466185344,
279,red,1760,0.5,,,,,,0,278,278,278,,,,,,,,,,,,,,,,,,,,,lp2,002,2019_Sep_24_1639,StressSession,3.2.3,59.556175466185344,
280,red,1760,0.5,,,,,,0,279,279,279,,,,,,,,,,,,,,,,,,,,,lp2,002,2019_Sep_24_1639,StressSession,3.2.3,59.556175466185344,
281,red,1760,0.5,,,,,,0,280,280,280,,,,,,,,,,,,,,,,,,,,,lp2,002,2019_Sep_24_1639,StressSession,3.2.3,59.556175466185344,
282,red,1760,0.5,,,,,,0,281,281,281,,,,,,,,,,,,,,,,,,,,,lp2,002,2019_Sep_24_1639,StressSession,3.2.3,59.556175466185344,
283,red,1760,0.5,,,,,,0,282,282,282,,,,,,,,,,,,,,,,,,,,,lp2,002,2019_Sep_24_1639,StressSession,3.2.3,59.556175466185344,
284,red,1760,0.5,,,,,,0,283,283,283,,,,,,,,,,,,,,,,,,,,,lp2,002,2019_Sep_24_1639,StressSession,3.2.3,59.556175466185344,
285,red,1760,0.5,,,,,,0,284,284,284,,,,,,,,,,,,,,,,,,,,,lp2,002,2019_Sep_24_1639,StressSession,3.2.3,59.556175466185344,
286,red,1760,0.5,,,,,,0,285,285,285,,,,,,,,,,,,,,,,,,,,,lp2,002,2019_Sep_24_1639,StressSession,3.2.3,59.556175466185344,
287,red,1760,0.5,,,,,,0,286,286,286,,,,,,,,,,,,,,,,,,,,,lp2,002,2019_Sep_24_1639,StressSession,3.2.3,59.556175466185344,
288,red,1760,0.5,,,,,,0,287,287,287,,,,,,,,,,,,,,,,,,,,,lp2,002,2019_Sep_24_1639,StressSession,3.2.3,59.556175466185344,
289,red,1760,0.5,,,,,,0,288,288,288,,,,,,,,,,,,,,,,,,,,,lp2,002,2019_Sep_24_1639,StressSession,3.2.3,59.556175466185344,
290,red,1760,0.5,,,,,,0,289,289,289,,,,,,,,,,,,,,,,,,,,,lp2,002,2019_Sep_24_1639,StressSession,3.2.3,59.556175466185344,
291,red,1760,0.5,,,,,,0,290,290,290,,,,,,,,,,,,,,,,,,,,,lp2,002,2019_Sep_24_1639,StressSession,3.2.3,59.556175466185344,
292,red,1760,0.5,,,,,,0,291,291,291,,,,,,,,,,,,,,,,,,,,,lp2,002,2019_Sep_24_1639,StressSession,3.2.3,59.556175466185344,
293,red,1760,0.5,,,,,,0,292,292,292,,,,,,,,,,,,,,,,,,,,,lp2,002,2019_Sep_24_1639,StressSession,3.2.3,59.556175466185344,
294,red,1760,0.5,,,,,,0,293,293,293,,,,,,,,,,,,,,,,,,,,,lp2,002,2019_Sep_24_1639,StressSession,3.2.3,59.556175466185344,
295,red,1760,0.5,,,,,,0,294,294,294,,,,,,,,,,,,,,,,,,,,,lp2,002,2019_Sep_24_1639,StressSession,3.2.3,59.556175466185344,
296,red,1760,0.5,,,,,,0,295,295,295,,,,,,,,,,,,,,,,,,,,,lp2,002,2019_Sep_24_1639,StressSession,3.2.3,59.556175466185344,
297,red,1760,0.5,,,,,,0,296,296,296,,,,,,,,,,,,,,,,,,,,,lp2,002,2019_Sep_24_1639,StressSession,3.2.3,59.556175466185344,
298,red,1760,0.5,,,,,,0,297,297,297,,,,,,,,,,,,,,,,,,,,,lp2,002,2019_Sep_24_1639,StressSession,3.2.3,59.556175466185344,
299,red,1760,0.5,,,,,,0,298,298,298,,,,,,,,,,,,,,,,,,,,,lp2,002,2019_Sep_24_1639,StressSession,3.2.3,59.556175466185344,
300,red,1760,0.5,,,,,,0,299,299,299,,,,,,,,,,,,,,,,,,,,,lp2,002,2019_Sep_24_1639,StressSession,3.2.3,59.556175466185344,
,,,,,,,,,,,,,,,,,,,2019-09-24_16:47:07,8,33.738,,,,,,,,,,,,lp2,002,2019_Sep_24_1639,StressSession,3.2.3,59.556175466185344,
,,,,,,,,,,,,,,,,,,,,,,8,19.5,,,,,,,,,,lp2,002,2019_Sep_24_1639,StressSession,3.2.3,59.556175466185344,
,,,,white,black,black,white,left,,,,,0,0,0,200,,,,,,,,2019-09-24_16:50:42,right,0.8141949000419118,658.1704535000026,None,,,,,lp2,002,2019_Sep_24_1639,StressSession,3.2.3,59.556175466185344,
,,,,black,cyan,black,cyan,right,,,,,0,1,1,104,,,,,,,,,left,0.8333470999496058,659.560277600016,None,,,,,lp2,002,2019_Sep_24_1639,StressSession,3.2.3,59.556175466185344,
,,,,yellow,orange,yellow,orange,right,,,,,0,2,2,50,,,,,,,,,left,1.6943141000228934,660.946259999997,None,,,,,lp2,002,2019_Sep_24_1639,StressSession,3.2.3,59.556175466185344,
,,,,purple,orange,orange,purple,left,,,,,0,3,3,189,,,,,,,,,left,1.3017694000154734,663.194589599967,None,,,,,lp2,002,2019_Sep_24_1639,StressSession,3.2.3,59.556175466185344,
,,,,yellow,purple,yellow,purple,right,,,,,0,4,4,51,,,,,,,,,right,1.3281883000163361,665.0483513000072,None,,,,,lp2,002,2019_Sep_24_1639,StressSession,3.2.3,59.556175466185344,
,,,,red,blue,red,blue,right,,,,,0,5,5,0,,,,,,,,,right,1.5507385999662802,666.9138776999898,None,,,,,lp2,002,2019_Sep_24_1639,StressSession,3.2.3,59.556175466185344,
,,,,purple,magenta,purple,magenta,right,,,,,0,6,6,76,,,,,,,,,right,1.6510283999959938,669.0224889999954,None,,,,,lp2,002,2019_Sep_24_1639,StressSession,3.2.3,59.556175466185344,
,,,,purple,red,red,purple,left,,,,,0,7,7,183,,,,,,,,,left,1.363846399995964,671.2127292000223,None,,,,,lp2,002,2019_Sep_24_1639,StressSession,3.2.3,59.556175466185344,
,,,,blue,magenta,blue,magenta,right,,,,,0,8,8,11,,,,,,,,,right,1.2510096000041813,673.1174462999916,None,,,,,lp2,002,2019_Sep_24_1639,StressSession,3.2.3,59.556175466185344,
,,,,yellow,red,red,yellow,left,,,,,0,9,9,165,,,,,,,,,left,1.4056835999945179,674.9147957999958,None,,,,,lp2,002,2019_Sep_24_1639,StressSession,3.2.3,59.556175466185344,
,,,,brown,orange,orange,brown,left,,,,,0,10,10,198,,,,,,,,,left,1.4155613000039011,676.8810683999909,None,,,,,lp2,002,2019_Sep_24_1639,StressSession,3.2.3,59.556175466185344,
,,,,cyan,blue,cyan,blue,right,,,,,0,11,11,47,,,,,,,,,right,1.184529600024689,678.8482118999818,None,,,,,lp2,002,2019_Sep_24_1639,StressSession,3.2.3,59.556175466185344,
,,,,yellow,brown,brown,yellow,left,,,,,0,12,12,162,,,,,,,,,left,1.6162033000146039,680.5845604999922,None,,,,,lp2,002,2019_Sep_24_1639,StressSession,3.2.3,59.556175466185344,
,,,,black,brown,black,brown,right,,,,,0,13,13,108,,,,,,,,,right,1.5094767000409774,682.7472600999754,None,,,,,lp2,002,2019_Sep_24_1639,StressSession,3.2.3,59.556175466185344,
,,,,white,brown,brown,white,left,,,,,0,14,14,209,,,,,,,,,left,1.0831680999835953,684.7974541999865,None,,,,,lp2,002,2019_Sep_24_1639,StressSession,3.2.3,59.556175466185344,
,,,,white,red,white,red,right,,,,,0,15,15,91,,,,,,,,,left,1.5682085999869741,686.4245024999836,None,,,,,lp2,002,2019_Sep_24_1639,StressSession,3.2.3,59.556175466185344,
,,,,yellow,orange,orange,yellow,left,,,,,0,16,16,160,,,,,,,,,left,1.6562434999505058,688.5523410000023,None,,,,,lp2,002,2019_Sep_24_1639,StressSession,3.2.3,59.556175466185344,
,,,,blue,purple,purple,blue,left,,,,,0,17,17,125,,,,,,,,,left,1.5221060000476427,690.7664027999854,None,,,,,lp2,002,2019_Sep_24_1639,StressSession,3.2.3,59.556175466185344,
,,,,yellow,magenta,magenta,yellow,left,,,,,0,18,18,168,,,,,,,,,left,1.4898739999625832,692.8308195999707,None,,,,,lp2,002,2019_Sep_24_1639,StressSession,3.2.3,59.556175466185344,
,,,,red,orange,red,orange,right,,,,,0,19,19,5,,,,,,,,,right,1.3908572000218555,694.8578674999881,None,,,,,lp2,002,2019_Sep_24_1639,StressSession,3.2.3,59.556175466185344,
,,,,brown,black,black,brown,left,,,,,0,20,20,191,,,,,,,,,left,1.2778612000402063,696.7947619999759,None,,,,,lp2,002,2019_Sep_24_1639,StressSession,3.2.3,59.556175466185344,
,,,,magenta,yellow,yellow,magenta,left,,,,,0,21,21,141,,,,,,,,,left,1.1599896000116132,698.6328903000103,None,,,,,lp2,002,2019_Sep_24_1639,StressSession,3.2.3,59.556175466185344,
,,,,white,yellow,white,yellow,right,,,,,0,22,22,96,,,,,,,,,right,1.5272044999874197,700.3455337000196,None,,,,,lp2,002,2019_Sep_24_1639,StressSession,3.2.3,59.556175466185344,
,,,,green,purple,green,purple,right,,,,,0,23,23,24,,,,,,,,,right,1.4482126000220887,702.4247087999829,None,,,,,lp2,002,2019_Sep_24_1639,StressSession,3.2.3,59.556175466185344,
,,,,cyan,yellow,yellow,cyan,left,,,,,0,24,24,150,,,,,,,,,left,1.1653258000151254,704.4272198000108,None,,,,,lp2,002,2019_Sep_24_1639,StressSession,3.2.3,59.556175466185344,
,,,,red,cyan,cyan,red,left,,,,,0,25,25,113,,,,,,,,,right,1.0693485999945551,706.1393281000201,None,,,,,lp2,002,2019_Sep_24_1639,StressSession,3.2.3,59.556175466185344,
,,,,black,blue,blue,black,left,,,,,0,26,26,211,,,,,,,,,left,1.4490332000423223,707.7594810000155,None,,,,,lp2,002,2019_Sep_24_1639,StressSession,3.2.3,59.556175466185344,
,,,,cyan,black,black,cyan,left,,,,,0,27,27,155,,,,,,,,,left,1.2599241000134498,709.7570488000056,None,,,,,lp2,002,2019_Sep_24_1639,StressSession,3.2.3,59.556175466185344,
,,,,black,red,red,black,left,,,,,0,28,28,210,,,,,,,,,left,1.7259027999825776,711.5552075000014,None,,,,,lp2,002,2019_Sep_24_1639,StressSession,3.2.3,59.556175466185344,
,,,,green,red,green,red,right,,,,,0,29,29,28,,,,,,,,,right,1.0011687999940477,713.8313514000038,None,,,,,lp2,002,2019_Sep_24_1639,StressSession,3.2.3,59.556175466185344,
,,,,orange,cyan,cyan,orange,left,,,,,0,30,30,178,,,,,,,,,left,0.9989657999831252,715.3777953999816,None,,,,,lp2,002,2019_Sep_24_1639,StressSession,3.2.3,59.556175466185344,
,,,,purple,brown,purple,brown,right,,,,,0,31,31,70,,,,,,,,,right,1.4335523000336252,716.9269581999979,None,,,,,lp2,002,2019_Sep_24_1639,StressSession,3.2.3,59.556175466185344,
,,,,green,magenta,green,magenta,right,,,,,0,32,32,20,,,,,,,,,right,1.0571340999449603,718.9115916999872,None,,,,,lp2,002,2019_Sep_24_1639,StressSession,3.2.3,59.556175466185344,
,,,,black,white,black,white,right,,,,,0,33,33,109,,,,,,,,,right,1.1388884999905713,720.5256386999972,None,,,,,lp2,002,2019_Sep_24_1639,StressSession,3.2.3,59.556175466185344,
,,,,brown,blue,blue,brown,left,,,,,0,34,34,193,,,,,,,,,left,1.2235339999897406,722.2090886000078,None,,,,,lp2,002,2019_Sep_24_1639,StressSession,3.2.3,59.556175466185344,
,,,,brown,purple,purple,brown,left,,,,,0,35,35,199,,,,,,,,,left,1.7750375000177883,723.977470599988,None,,,,,lp2,002,2019_Sep_24_1639,StressSession,3.2.3,59.556175466185344,
,,,,blue,yellow,blue,yellow,right,,,,,0,36,36,13,,,,,,,,,right,1.1528324999962933,726.3040028999676,None,,,,,lp2,002,2019_Sep_24_1639,StressSession,3.2.3,59.556175466185344,
,,,,magenta,purple,purple,magenta,left,,,,,0,37,37,143,,,,,,,,,left,2.3483664999948815,728.0130039000069,None,,,,,lp2,002,2019_Sep_24_1639,StressSession,3.2.3,59.556175466185344,
,,,,yellow,cyan,yellow,cyan,right,,,,,0,38,38,59,,,,,,,,,right,1.3522209000075236,730.8964923999738,None,,,,,lp2,002,2019_Sep_24_1639,StressSession,3.2.3,59.556175466185344,
,,,,white,yellow,yellow,white,left,,,,,0,39,39,206,,,,,,,,,left,1.3796886999625713,732.7971508000046,None,,,,,lp2,002,2019_Sep_24_1639,StressSession,3.2.3,59.556175466185344,
,,,,green,brown,green,brown,right,,,,,0,40,40,25,,,,,,,,,right,1.0081179999979213,734.7206135999877,None,,,,,lp2,002,2019_Sep_24_1639,StressSession,3.2.3,59.556175466185344,
,,,,orange,black,black,orange,left,,,,,0,41,41,173,,,,,,,,,left,1.346629900042899,736.2626915000146,None,,,,,lp2,002,2019_Sep_24_1639,StressSession,3.2.3,59.556175466185344,
,,,,magenta,white,magenta,white,right,,,,,0,42,42,35,,,,,,,,,right,1.02260159997968,738.1541002999875,None,,,,,lp2,002,2019_Sep_24_1639,StressSession,3.2.3,59.556175466185344,
,,,,magenta,green,magenta,green,right,,,,,0,43,43,39,,,,,,,,,right,1.0952289000269957,739.7059167000116,None,,,,,lp2,002,2019_Sep_24_1639,StressSession,3.2.3,59.556175466185344,
,,,,orange,brown,orange,brown,right,,,,,0,44,44,61,,,,,,,,,right,1.1572813999955542,741.3552676999825,None,,,,,lp2,002,2019_Sep_24_1639,StressSession,3.2.3,59.556175466185344,
,,,,orange,yellow,yellow,orange,left,,,,,0,45,45,179,,,,,,,,,left,1.3290640000486746,743.0634808000177,None,,,,,lp2,002,2019_Sep_24_1639,StressSession,3.2.3,59.556175466185344,
,,,,orange,red,orange,red,right,,,,,0,46,46,64,,,,,,,,,right,1.3053209999925457,744.927310900006,None,,,,,lp2,002,2019_Sep_24_1639,StressSession,3.2.3,59.556175466185344,
,,,,green,purple,purple,green,left,,,,,0,47,47,134,,,,,,,,,left,1.0595421000034548,746.7812440000125,None,,,,,lp2,002,2019_Sep_24_1639,StressSession,3.2.3,59.556175466185344,
,,,,yellow,black,yellow,black,right,,,,,0,48,48,54,,,,,,,,,right,0.9064976999652572,748.3827128999983,None,,,,,lp2,002,2019_Sep_24_1639,StressSession,3.2.3,59.556175466185344,
,,,,magenta,purple,magenta,purple,right,,,,,0,49,49,33,,,,,,,,,right,1.4836542999837548,749.8377697999822,None,,,,,lp2,002,2019_Sep_24_1639,StressSession,3.2.3,59.556175466185344,
,,,,purple,white,purple,white,right,,,,,0,50,50,71,,,,,,,,,right,0.9086318000336178,751.8680300000124,None,,,,,lp2,002,2019_Sep_24_1639,StressSession,3.2.3,59.556175466185344,
,,,,brown,magenta,magenta,brown,left,,,,,0,51,51,195,,,,,,,,,left,0.9286957000149414,753.3360944999731,None,,,,,lp2,002,2019_Sep_24_1639,StressSession,3.2.3,59.556175466185344,
,,,,magenta,brown,magenta,brown,right,,,,,0,52,52,34,,,,,,,,,right,1.1817271999898367,754.8030048999935,None,,,,,lp2,002,2019_Sep_24_1639,StressSession,3.2.3,59.556175466185344,
,,,,blue,black,blue,black,right,,,,,0,53,53,18,,,,,,,,,right,1.078522800002247,756.5300892000087,None,,,,,lp2,002,2019_Sep_24_1639,StressSession,3.2.3,59.556175466185344,
,,,,yellow,white,yellow,white,right,,,,,0,54,54,53,,,,,,,,,right,0.9127793999505229,758.1678924000007,None,,,,,lp2,002,2019_Sep_24_1639,StressSession,3.2.3,59.556175466185344,
,,,,purple,white,white,purple,left,,,,,0,55,55,181,,,,,,,,,left,1.1698733999510296,759.6308632,None,,,,,lp2,002,2019_Sep_24_1639,StressSession,3.2.3,59.556175466185344,
,,,,red,black,red,black,right,,,,,0,56,56,9,,,,,,,,,right,0.9774770000367425,761.3434539000154,None,,,,,lp2,002,2019_Sep_24_1639,StressSession,3.2.3,59.556175466185344,
,,,,blue,red,blue,red,right,,,,,0,57,57,19,,,,,,,,,right,0.9170589999994263,762.8598213000223,None,,,,,lp2,002,2019_Sep_24_1639,StressSession,3.2.3,59.556175466185344,
,,,,black,cyan,cyan,black,left,,,,,0,58,58,214,,,,,,,,,left,1.0108671999769285,764.325896299968,None,,,,,lp2,002,2019_Sep_24_1639,StressSession,3.2.3,59.556175466185344,
,,,,purple,blue,blue,purple,left,,,,,0,59,59,184,,,,,,,,,left,2.67426559998421,765.8787979999906,None,,,,,lp2,002,2019_Sep_24_1639,StressSession,3.2.3,59.556175466185344,
,,,,white,cyan,cyan,white,left,,,,,0,60,60,205,,,,,,,,,left,1.865975700027775,769.0945970999892,None,,,,,lp2,002,2019_Sep_24_1639,StressSession,3.2.3,59.556175466185344,
,,,,red,brown,red,brown,right,,,,,0,61,61,7,,,,,,,,,right,1.294970299990382,771.50610280002,None,,,,,lp2,002,2019_Sep_24_1639,StressSession,3.2.3,59.556175466185344,
,,,,red,yellow,red,yellow,right,,,,,0,62,62,4,,,,,,,,,right,1.5186522000003606,773.330701400002,None,,,,,lp2,002,2019_Sep_24_1639,StressSession,3.2.3,59.556175466185344,
,,,,green,yellow,green,yellow,right,,,,,0,63,63,22,,,,,,,,,right,1.175648199976422,775.3851283999975,None,,,,,lp2,002,2019_Sep_24_1639,StressSession,3.2.3,59.556175466185344,
,,,,red,white,red,white,right,,,,,0,64,64,8,,,,,,,,,right,1.014514299982693,777.1062616999843,None,,,,,lp2,002,2019_Sep_24_1639,StressSession,3.2.3,59.556175466185344,
,,,,yellow,cyan,cyan,yellow,left,,,,,0,65,65,169,,,,,,,,,left,0.7903598000411876,778.6824477000046,None,,,,,lp2,002,2019_Sep_24_1639,StressSession,3.2.3,59.556175466185344,
,,,,blue,orange,blue,orange,right,,,,,0,66,66,14,,,,,,,,,right,0.873456500004977,780.0245005000033,None,,,,,lp2,002,2019_Sep_24_1639,StressSession,3.2.3,59.556175466185344,
,,,,white,magenta,magenta,white,left,,,,,0,67,67,204,,,,,,,,,left,0.9752375999814831,781.4412771000061,None,,,,,lp2,002,2019_Sep_24_1639,StressSession,3.2.3,59.556175466185344,
,,,,white,green,green,white,left,,,,,0,68,68,203,,,,,,,,,left,1.3988658000016585,782.9458911999827,None,,,,,lp2,002,2019_Sep_24_1639,StressSession,3.2.3,59.556175466185344,
,,,,red,yellow,yellow,red,left,,,,,0,69,69,114,,,,,,,,,left,0.9668455999926664,784.8898340999731,None,,,,,lp2,002,2019_Sep_24_1639,StressSession,3.2.3,59.556175466185344,
,,,,brown,green,green,brown,left,,,,,0,70,70,194,,,,,,,,,left,1.1830885999952443,786.4097334999824,None,,,,,lp2,002,2019_Sep_24_1639,StressSession,3.2.3,59.556175466185344,
,,,,black,green,black,green,right,,,,,0,71,71,102,,,,,,,,,right,0.8302418999955989,788.1389113999903,None,,,,,lp2,002,2019_Sep_24_1639,StressSession,3.2.3,59.556175466185344,
,,,,brown,black,brown,black,right,,,,,0,72,72,81,,,,,,,,,right,1.0663149999454618,789.5262690000236,None,,,,,lp2,002,2019_Sep_24_1639,StressSession,3.2.3,59.556175466185344,
,,,,cyan,green,green,cyan,left,,,,,0,73,73,158,,,,,,,,,left,1.0000194999738596,791.1365015999763,None,,,,,lp2,002,2019_Sep_24_1639,StressSession,3.2.3,59.556175466185344,
,,,,blue,brown,blue,brown,right,,,,,0,74,74,16,,,,,,,,,right,1.246909899986349,792.6896487000049,None,,,,,lp2,002,2019_Sep_24_1639,StressSession,3.2.3,59.556175466185344,
,,,,yellow,red,yellow,red,right,,,,,0,75,75,55,,,,,,,,,right,1.246789800003171,794.4899675999768,None,,,,,lp2,002,2019_Sep_24_1639,StressSession,3.2.3,59.556175466185344,
,,,,blue,orange,orange,blue,left,,,,,0,76,76,124,,,,,,,,,left,1.2718401000020094,796.2893746999907,None,,,,,lp2,002,2019_Sep_24_1639,StressSession,3.2.3,59.556175466185344,
,,,,cyan,orange,cyan,orange,right,,,,,0,77,77,41,,,,,,,,,right,1.1825242000049911,798.1062820000225,None,,,,,lp2,002,2019_Sep_24_1639,StressSession,3.2.3,59.556175466185344,
,,,,yellow,brown,yellow,brown,right,,,,,0,78,78,52,,,,,,,,,right,1.3703076000092551,799.8390673999675,None,,,,,lp2,002,2019_Sep_24_1639,StressSession,3.2.3,59.556175466185344,
,,,,red,green,green,red,left,,,,,0,79,79,111,,,,,,,,,left,1.2877525999792852,801.7530053000082,None,,,,,lp2,002,2019_Sep_24_1639,StressSession,3.2.3,59.556175466185344,
,,,,blue,black,black,blue,left,,,,,0,80,80,128,,,,,,,,,left,0.9690803999546915,803.5835296000005,None,,,,,lp2,002,2019_Sep_24_1639,StressSession,3.2.3,59.556175466185344,
,,,,magenta,blue,blue,magenta,left,,,,,0,81,81,148,,,,,,,,,left,1.4868532000109553,805.106034299999,None,,,,,lp2,002,2019_Sep_24_1639,StressSession,3.2.3,59.556175466185344,
,,,,blue,green,blue,green,right,,,,,0,82,82,10,,,,,,,,,right,1.150209299987182,807.1304784999811,None,,,,,lp2,002,2019_Sep_24_1639,StressSession,3.2.3,59.556175466185344,
,,,,purple,green,green,purple,left,,,,,0,83,83,185,,,,,,,,,left,1.101641400018707,808.8431197999744,None,,,,,lp2,002,2019_Sep_24_1639,StressSession,3.2.3,59.556175466185344,
,,,,brown,purple,brown,purple,right,,,,,0,84,84,89,,,,,,,,,right,1.6821999000385404,810.4783911000122,None,,,,,lp2,002,2019_Sep_24_1639,StressSession,3.2.3,59.556175466185344,
,,,,orange,blue,orange,blue,right,,,,,0,85,85,65,,,,,,,,,right,1.0641729999915697,812.7048482000246,None,,,,,lp2,002,2019_Sep_24_1639,StressSession,3.2.3,59.556175466185344,
,,,,green,white,white,green,left,,,,,0,86,86,136,,,,,,,,,left,1.260968899994623,814.3158695999882,None,,,,,lp2,002,2019_Sep_24_1639,StressSession,3.2.3,59.556175466185344,
,,,,red,blue,blue,red,left,,,,,0,87,87,110,,,,,,,,,left,1.5098737999796867,816.1309879000182,None,,,,,lp2,002,2019_Sep_24_1639,StressSession,3.2.3,59.556175466185344,
,,,,green,orange,green,orange,right,,,,,0,88,88,23,,,,,,,,,right,0.9244764999602921,818.1810571000096,None,,,,,lp2,002,2019_Sep_24_1639,StressSession,3.2.3,59.556175466185344,
,,,,brown,yellow,brown,yellow,right,,,,,0,89,89,87,,,,,,,,,right,1.1490005000378005,819.651949000021,None,,,,,lp2,002,2019_Sep_24_1639,StressSession,3.2.3,59.556175466185344,
,,,,brown,yellow,yellow,brown,left,,,,,0,90,90,197,,,,,,,,,left,0.9452388000208884,821.3441698999959,None,,,,,lp2,002,2019_Sep_24_1639,StressSession,3.2.3,59.556175466185344,
,,,,brown,cyan,brown,cyan,right,,,,,0,91,91,86,,,,,,,,,right,0.825310799991712,822.8232744999696,None,,,,,lp2,002,2019_Sep_24_1639,StressSession,3.2.3,59.556175466185344,
,,,,black,magenta,black,magenta,right,,,,,0,92,92,103,,,,,,,,,right,1.0747755000484176,824.1981498000096,None,,,,,lp2,002,2019_Sep_24_1639,StressSession,3.2.3,59.556175466185344,
,,,,purple,green,purple,green,right,,,,,0,93,93,75,,,,,,,,,right,0.8948316000169143,825.8177738999948,None,,,,,lp2,002,2019_Sep_24_1639,StressSession,3.2.3,59.556175466185344,
,,,,green,brown,brown,green,left,,,,,0,94,94,135,,,,,,,,,left,0.8711675999802537,827.2575266999775,None,,,,,lp2,002,2019_Sep_24_1639,StressSession,3.2.3,59.556175466185344,
,,,,blue,white,white,blue,left,,,,,0,95,95,127,,,,,,,,,left,1.2249453999684192,828.6716216999921,None,,,,,lp2,002,2019_Sep_24_1639,StressSession,3.2.3,59.556175466185344,
,,,,blue,brown,brown,blue,left,,,,,0,96,96,126,,,,,,,,,left,1.3030893999966793,830.4339102000231,None,,,,,lp2,002,2019_Sep_24_1639,StressSession,3.2.3,59.556175466185344,
,,,,purple,yellow,purple,yellow,right,,,,,0,97,97,78,,,,,,,,,right,0.7334957999992184,832.283343499992,None,,,,,lp2,002,2019_Sep_24_1639,StressSession,3.2.3,59.556175466185344,
,,,,purple,brown,brown,purple,left,,,,,0,98,98,180,,,,,,,,,left,0.8056872000452131,833.5548765999847,None,,,,,lp2,002,2019_Sep_24_1639,StressSession,3.2.3,59.556175466185344,
,,,,orange,green,green,orange,left,,,,,0,99,99,176,,,,,,,,,left,0.7877477000001818,834.9169076000107,None,,,,,lp2,002,2019_Sep_24_1639,StressSession,3.2.3,59.556175466185344,
,,,,green,magenta,magenta,green,left,,,,,0,100,100,130,,,,,,,,,left,0.7771818999899551,836.2475578999729,None,,,,,lp2,002,2019_Sep_24_1639,StressSession,3.2.3,59.556175466185344,
,,,,orange,magenta,orange,magenta,right,,,,,0,101,101,67,,,,,,,,,right,1.1130316999624483,837.5838325999794,None,,,,,lp2,002,2019_Sep_24_1639,StressSession,3.2.3,59.556175466185344,
,,,,magenta,cyan,cyan,magenta,left,,,,,0,102,102,140,,,,,,,,,left,0.7339919999940321,839.2428885999834,None,,,,,lp2,002,2019_Sep_24_1639,StressSession,3.2.3,59.556175466185344,
,,,,red,purple,red,purple,right,,,,,0,103,103,6,,,,,,,,,right,0.6603923999937251,840.5243371999823,None,,,,,lp2,002,2019_Sep_24_1639,StressSession,3.2.3,59.556175466185344,
,,,,red,magenta,magenta,red,left,,,,,0,104,104,112,,,,,,,,,left,0.6795698999776505,841.7220500999829,None,,,,,lp2,002,2019_Sep_24_1639,StressSession,3.2.3,59.556175466185344,
,,,,cyan,red,cyan,red,right,,,,,0,105,105,46,,,,,,,,,right,0.7375335000106134,842.9431018999894,None,,,,,lp2,002,2019_Sep_24_1639,StressSession,3.2.3,59.556175466185344,
,,,,cyan,blue,blue,cyan,left,,,,,0,106,106,157,,,,,,,,,left,0.6377970000030473,844.2187516000122,None,,,,,lp2,002,2019_Sep_24_1639,StressSession,3.2.3,59.556175466185344,
,,,,orange,cyan,orange,cyan,right,,,,,0,107,107,68,,,,,,,,,right,0.8844023999990895,845.3883869000128,None,,,,,lp2,002,2019_Sep_24_1639,StressSession,3.2.3,59.556175466185344,
,,,,cyan,black,cyan,black,right,,,,,0,108,108,45,,,,,,,,,left,0.6232922000344843,846.8261108999723,None,,,,,lp2,002,2019_Sep_24_1639,StressSession,3.2.3,59.556175466185344,
,,,,cyan,yellow,cyan,yellow,right,,,,,0,109,109,40,,,,,,,,,right,0.9304498999845237,847.9821138000116,None,,,,,lp2,002,2019_Sep_24_1639,StressSession,3.2.3,59.556175466185344,
,,,,green,black,black,green,left,,,,,0,110,110,137,,,,,,,,,left,0.7748256000340916,849.4578911999706,None,,,,,lp2,002,2019_Sep_24_1639,StressSession,3.2.3,59.556175466185344,
,,,,yellow,black,black,yellow,left,,,,,0,111,111,164,,,,,,,,,left,0.7211545000318438,850.7763310999726,None,,,,,lp2,002,2019_Sep_24_1639,StressSession,3.2.3,59.556175466185344,
,,,,white,red,red,white,left,,,,,0,112,112,201,,,,,,,,,left,0.6251022000215016,852.0402995999902,None,,,,,lp2,002,2019_Sep_24_1639,StressSession,3.2.3,59.556175466185344,
,,,,purple,yellow,yellow,purple,left,,,,,0,113,113,188,,,,,,,,,left,0.8179904000135139,853.2068101000041,None,,,,,lp2,002,2019_Sep_24_1639,StressSession,3.2.3,59.556175466185344,
,,,,brown,magenta,brown,magenta,right,,,,,0,114,114,85,,,,,,,,,right,0.5989069999777712,854.5778178999899,None,,,,,lp2,002,2019_Sep_24_1639,StressSession,3.2.3,59.556175466185344,
,,,,black,green,green,black,left,,,,,0,115,115,212,,,,,,,,,left,0.7103184000006877,855.7222756000119,None,,,,,lp2,002,2019_Sep_24_1639,StressSession,3.2.3,59.556175466185344,
,,,,white,blue,white,blue,right,,,,,0,116,116,92,,,,,,,,,right,1.7168046000297181,856.9719555000192,None,,,,,lp2,002,2019_Sep_24_1639,StressSession,3.2.3,59.556175466185344,
,,,,green,black,green,black,right,,,,,0,117,117,27,,,,,,,,,right,0.794097599980887,859.230805500003,None,,,,,lp2,002,2019_Sep_24_1639,StressSession,3.2.3,59.556175466185344,
,,,,magenta,red,red,magenta,left,,,,,0,118,118,147,,,,,,,,,left,1.0109106000163592,860.5741009999765,None,,,,,lp2,002,2019_Sep_24_1639,StressSession,3.2.3,59.556175466185344,
,,,,yellow,green,yellow,green,right,,,,,0,119,119,57,,,,,,,,,right,0.7821142000029795,862.1385978999897,None,,,,,lp2,002,2019_Sep_24_1639,StressSession,3.2.3,59.556175466185344,
,,,,brown,blue,brown,blue,right,,,,,0,120,120,83,,,,,,,,,right,0.8730455000186339,863.4721009000205,None,,,,,lp2,002,2019_Sep_24_1639,StressSession,3.2.3,59.556175466185344,
,,,,blue,purple,blue,purple,right,,,,,0,121,121,15,,,,,,,,,right,0.7791461000451818,864.8934567999677,None,,,,,lp2,002,2019_Sep_24_1639,StressSession,3.2.3,59.556175466185344,
,,,,yellow,blue,yellow,blue,right,,,,,0,122,122,56,,,,,,,,,right,1.199377600045409,866.2252546999953,None,,,,,lp2,002,2019_Sep_24_1639,StressSession,3.2.3,59.556175466185344,
,,,,yellow,green,green,yellow,left,,,,,0,123,123,167,,,,,,,,,left,0.7324988000327721,867.964205599972,None,,,,,lp2,002,2019_Sep_24_1639,StressSession,3.2.3,59.556175466185344,
,,,,orange,purple,purple,orange,left,,,,,0,124,124,170,,,,,,,,,left,0.605696499987971,869.2832832999993,None,,,,,lp2,002,2019_Sep_24_1639,StressSession,3.2.3,59.556175466185344,
,,,,magenta,yellow,magenta,yellow,right,,,,,0,125,125,31,,,,,,,,,right,0.6006868000258692,870.4398065999849,None,,,,,lp2,002,2019_Sep_24_1639,StressSession,3.2.3,59.556175466185344,
,,,,black,white,white,black,left,,,,,0,126,126,219,,,,,,,,,left,0.5408144000102766,871.5880980999791,None,,,,,lp2,002,2019_Sep_24_1639,StressSession,3.2.3,59.556175466185344,
,,,,magenta,red,magenta,red,right,,,,,0,127,127,37,,,,,,,,,right,0.5885369000025094,872.6761627999949,None,,,,,lp2,002,2019_Sep_24_1639,StressSession,3.2.3,59.556175466185344,
,,,,red,orange,orange,red,left,,,,,0,128,128,115,,,,,,,,,left,0.6831505000009201,873.8134432000224,None,,,,,lp2,002,2019_Sep_24_1639,StressSession,3.2.3,59.556175466185344,
,,,,magenta,orange,magenta,orange,right,,,,,0,129,129,32,,,,,,,,,right,0.5886962999938987,875.0599730999675,None,,,,,lp2,002,2019_Sep_24_1639,StressSession,3.2.3,59.556175466185344,
,,,,magenta,cyan,magenta,cyan,right,,,,,0,130,130,30,,,,,,,,,right,0.7307795999804512,876.1898338000174,None,,,,,lp2,002,2019_Sep_24_1639,StressSession,3.2.3,59.556175466185344,
,,,,red,white,white,red,left,,,,,0,131,131,118,,,,,,,,,left,0.5584159999853,877.4669992999989,None,,,,,lp2,002,2019_Sep_24_1639,StressSession,3.2.3,59.556175466185344,
,,,,purple,black,purple,black,right,,,,,0,132,132,72,,,,,,,,,right,0.49453089997405186,878.5706330999965,None,,,,,lp2,002,2019_Sep_24_1639,StressSession,3.2.3,59.556175466185344,
,,,,white,orange,white,orange,right,,,,,0,133,133,97,,,,,,,,,right,0.6605901999864727,879.6199489000137,None,,,,,lp2,002,2019_Sep_24_1639,StressSession,3.2.3,59.556175466185344,
,,,,red,black,black,red,left,,,,,0,134,134,119,,,,,,,,,left,0.7653583000064828,880.8275477999705,None,,,,,lp2,002,2019_Sep_24_1639,StressSession,3.2.3,59.556175466185344,
,,,,black,blue,black,blue,right,,,,,0,135,135,101,,,,,,,,,right,1.0343923000036739,882.1263844000059,None,,,,,lp2,002,2019_Sep_24_1639,StressSession,3.2.3,59.556175466185344,
,,,,brown,white,white,brown,left,,,,,0,136,136,190,,,,,,,,,left,0.7680764999822713,883.7054377999739,None,,,,,lp2,002,2019_Sep_24_1639,StressSession,3.2.3,59.556175466185344,
,,,,blue,white,blue,white,right,,,,,0,137,137,17,,,,,,,,,right,0.5728952999925241,885.0198830000008,None,,,,,lp2,002,2019_Sep_24_1639,StressSession,3.2.3,59.556175466185344,
,,,,orange,white,white,orange,left,,,,,0,138,138,172,,,,,,,,,left,0.5564176000189036,886.1333237999934,None,,,,,lp2,002,2019_Sep_24_1639,StressSession,3.2.3,59.556175466185344,
,,,,purple,black,black,purple,left,,,,,0,139,139,182,,,,,,,,,left,0.7509190000128001,887.2340786000132,None,,,,,lp2,002,2019_Sep_24_1639,StressSession,3.2.3,59.556175466185344,
,,,,green,cyan,green,cyan,right,,,,,0,140,140,21,,,,,,,,,right,0.558308300038334,888.5310774000245,None,,,,,lp2,002,2019_Sep_24_1639,StressSession,3.2.3,59.556175466185344,
,,,,brown,orange,brown,orange,right,,,,,0,141,141,88,,,,,,,,,right,0.7342912000021897,889.634389200015,None,,,,,lp2,002,2019_Sep_24_1639,StressSession,3.2.3,59.556175466185344,
,,,,blue,magenta,magenta,blue,left,,,,,0,142,142,121,,,,,,,,,left,0.8202161000226624,890.9173012999818,None,,,,,lp2,002,2019_Sep_24_1639,StressSession,3.2.3,59.556175466185344,
,,,,orange,black,orange,black,right,,,,,0,143,143,63,,,,,,,,,right,0.5736809999798425,892.283211699978,None,,,,,lp2,002,2019_Sep_24_1639,StressSession,3.2.3,59.556175466185344,
,,,,yellow,magenta,yellow,magenta,right,,,,,0,144,144,58,,,,,,,,,left,0.4776887000189163,893.4032582999789,None,,,,,lp2,002,2019_Sep_24_1639,StressSession,3.2.3,59.556175466185344,
,,,,green,blue,blue,green,left,,,,,0,145,145,139,,,,,,,,,left,1.4502198999980465,894.4304241000209,None,,,,,lp2,002,2019_Sep_24_1639,StressSession,3.2.3,59.556175466185344,
,,,,blue,yellow,yellow,blue,left,,,,,0,146,146,123,,,,,,,,,left,1.0200949999853037,896.4286925999913,None,,,,,lp2,002,2019_Sep_24_1639,StressSession,3.2.3,59.556175466185344,
,,,,black,yellow,black,yellow,right,,,,,0,147,147,105,,,,,,,,,right,0.6774801000137813,897.9951061999891,None,,,,,lp2,002,2019_Sep_24_1639,StressSession,3.2.3,59.556175466185344,
,,,,white,cyan,white,cyan,right,,,,,0,148,148,95,,,,,,,,,right,0.6362269000383094,899.2127226999728,None,,,,,lp2,002,2019_Sep_24_1639,StressSession,3.2.3,59.556175466185344,
,,,,brown,cyan,cyan,brown,left,,,,,0,149,149,196,,,,,,,,,left,0.686144899984356,900.3945385999978,None,,,,,lp2,002,2019_Sep_24_1639,StressSession,3.2.3,59.556175466185344,
,,,,white,green,white,green,right,,,,,0,150,150,93,,,,,,,,,right,0.6620635999715887,901.6265362999984,None,,,,,lp2,002,2019_Sep_24_1639,StressSession,3.2.3,59.556175466185344,
,,,,white,orange,orange,white,left,,,,,0,151,151,207,,,,,,,,,left,0.7265749999787658,902.8267394999857,None,,,,,lp2,002,2019_Sep_24_1639,StressSession,3.2.3,59.556175466185344,
,,,,green,orange,orange,green,left,,,,,0,152,152,133,,,,,,,,,right,0.5305626000044867,904.0943096000119,None,,,,,lp2,002,2019_Sep_24_1639,StressSession,3.2.3,59.556175466185344,
,,,,purple,magenta,magenta,purple,left,,,,,0,153,153,186,,,,,,,,,left,1.2643175999983214,905.1843433000031,None,,,,,lp2,002,2019_Sep_24_1639,StressSession,3.2.3,59.556175466185344,
,,,,black,brown,brown,black,left,,,,,0,154,154,218,,,,,,,,,left,1.7686572999809869,907.0001144999987,None,,,,,lp2,002,2019_Sep_24_1639,StressSession,3.2.3,59.556175466185344,
,,,,orange,brown,brown,orange,left,,,,,0,155,155,171,,,,,,,,,left,1.0031294000218622,909.3094747000141,None,,,,,lp2,002,2019_Sep_24_1639,StressSession,3.2.3,59.556175466185344,
,,,,yellow,purple,purple,yellow,left,,,,,0,156,156,161,,,,,,,,,right,0.5694097999949008,910.8644013999728,None,,,,,lp2,002,2019_Sep_24_1639,StressSession,3.2.3,59.556175466185344,
,,,,magenta,black,magenta,black,right,,,,,0,157,157,36,,,,,,,,,left,1.4384451999794692,911.9793237000122,None,,,,,lp2,002,2019_Sep_24_1639,StressSession,3.2.3,59.556175466185344,
,,,,brown,white,brown,white,right,,,,,0,158,158,80,,,,,,,,,right,0.8470812999876216,913.9617577000172,None,,,,,lp2,002,2019_Sep_24_1639,StressSession,3.2.3,59.556175466185344,
,,,,black,yellow,yellow,black,left,,,,,0,159,159,215,,,,,,,,,left,1.4291511999908835,915.3562242999906,None,,,,,lp2,002,2019_Sep_24_1639,StressSession,3.2.3,59.556175466185344,
,,,,magenta,orange,orange,magenta,left,,,,,0,160,160,142,,,,,,,,,left,0.7867293999879621,917.3500669000205,None,,,,,lp2,002,2019_Sep_24_1639,StressSession,3.2.3,59.556175466185344,
,,,,black,magenta,magenta,black,left,,,,,0,161,161,213,,,,,,,,,right,2.3563822000287473,918.6931157999788,None,,,,,lp2,002,2019_Sep_24_1639,StressSession,3.2.3,59.556175466185344,
,,,,cyan,white,cyan,white,right,,,,,0,162,162,44,,,,,,,,,right,1.2491298000095412,921.5918267000234,None,,,,,lp2,002,2019_Sep_24_1639,StressSession,3.2.3,59.556175466185344,
,,,,blue,green,green,blue,left,,,,,0,163,163,120,,,,,,,,,left,1.1227509999880567,923.3908235999988,None,,,,,lp2,002,2019_Sep_24_1639,StressSession,3.2.3,59.556175466185344,
,,,,magenta,brown,brown,magenta,left,,,,,0,164,164,144,,,,,,,,,left,0.8770728000090457,925.0597683999804,None,,,,,lp2,002,2019_Sep_24_1639,StressSession,3.2.3,59.556175466185344,
,,,,orange,blue,blue,orange,left,,,,,0,165,165,175,,,,,,,,,left,1.3620579999987967,926.4945192000014,None,,,,,lp2,002,2019_Sep_24_1639,StressSession,3.2.3,59.556175466185344,
,,,,cyan,purple,purple,cyan,left,,,,,0,166,166,152,,,,,,,,,left,0.9747774999705143,928.4103560000076,None,,,,,lp2,002,2019_Sep_24_1639,StressSession,3.2.3,59.556175466185344,
,,,,cyan,orange,orange,cyan,left,,,,,0,167,167,151,,,,,,,,,left,0.9553406999912113,929.9334066999727,None,,,,,lp2,002,2019_Sep_24_1639,StressSession,3.2.3,59.556175466185344,
,,,,red,brown,brown,red,left,,,,,0,168,168,117,,,,,,,,,left,0.836799799988512,931.4359804000123,None,,,,,lp2,002,2019_Sep_24_1639,StressSession,3.2.3,59.556175466185344,
,,,,yellow,blue,blue,yellow,left,,,,,0,169,169,166,,,,,,,,,left,0.8506202999851666,932.8220454999828,None,,,,,lp2,002,2019_Sep_24_1639,StressSession,3.2.3,59.556175466185344,
,,,,black,red,black,red,right,,,,,0,170,170,100,,,,,,,,,right,0.6944441999658011,934.2186806999962,None,,,,,lp2,002,2019_Sep_24_1639,StressSession,3.2.3,59.556175466185344,
,,,,green,white,green,white,right,,,,,0,171,171,26,,,,,,,,,right,1.0414454999845475,935.4634111999767,None,,,,,lp2,002,2019_Sep_24_1639,StressSession,3.2.3,59.556175466185344,
,,,,magenta,blue,magenta,blue,right,,,,,0,172,172,38,,,,,,,,,right,0.9394840999739245,937.061229599989,None,,,,,lp2,002,2019_Sep_24_1639,StressSession,3.2.3,59.556175466185344,
,,,,orange,red,red,orange,left,,,,,0,173,173,174,,,,,,,,,left,0.5309683999512345,938.5498415000038,None,,,,,lp2,002,2019_Sep_24_1639,StressSession,3.2.3,59.556175466185344,
,,,,white,purple,purple,white,left,,,,,0,174,174,208,,,,,,,,,left,1.5458569999900647,939.638927699998,None,,,,,lp2,002,2019_Sep_24_1639,StressSession,3.2.3,59.556175466185344,
,,,,blue,red,red,blue,left,,,,,0,175,175,129,,,,,,,,,left,0.9860901999636553,941.734816399985,None,,,,,lp2,002,2019_Sep_24_1639,StressSession,3.2.3,59.556175466185344,
,,,,purple,red,purple,red,right,,,,,0,176,176,73,,,,,,,,,right,0.8275502999895252,943.269088800007,None,,,,,lp2,002,2019_Sep_24_1639,StressSession,3.2.3,59.556175466185344,
,,,,green,red,red,green,left,,,,,0,177,177,138,,,,,,,,,left,0.6062571000074968,944.6507377999951,None,,,,,lp2,002,2019_Sep_24_1639,StressSession,3.2.3,59.556175466185344,
,,,,white,purple,white,purple,right,,,,,0,178,178,98,,,,,,,,,right,0.9961536999908276,945.8044940999825,None,,,,,lp2,002,2019_Sep_24_1639,StressSession,3.2.3,59.556175466185344,
,,,,orange,magenta,magenta,orange,left,,,,,0,179,179,177,,,,,,,,,left,2.330474399961531,947.358267100004,None,,,,,lp2,002,2019_Sep_24_1639,StressSession,3.2.3,59.556175466185344,
,,,,green,cyan,cyan,green,left,,,,,0,180,180,131,,,,,,,,,left,0.8580760000040755,950.2468941999832,None,,,,,lp2,002,2019_Sep_24_1639,StressSession,3.2.3,59.556175466185344,
,,,,red,cyan,red,cyan,right,,,,,0,181,181,3,,,,,,,,,right,0.6981216999702156,951.6471754999948,None,,,,,lp2,002,2019_Sep_24_1639,StressSession,3.2.3,59.556175466185344,
,,,,cyan,green,cyan,green,right,,,,,0,182,182,48,,,,,,,,,right,0.895257500000298,952.8974894999992,None,,,,,lp2,002,2019_Sep_24_1639,StressSession,3.2.3,59.556175466185344,
,,,,black,orange,orange,black,left,,,,,0,183,183,216,,,,,,,,,left,0.7617121000075713,954.3351079999702,None,,,,,lp2,002,2019_Sep_24_1639,StressSession,3.2.3,59.556175466185344,
,,,,cyan,purple,cyan,purple,right,,,,,0,184,184,42,,,,,,,,,right,1.3013869000133127,955.6515072999755,None,,,,,lp2,002,2019_Sep_24_1639,StressSession,3.2.3,59.556175466185344,
,,,,orange,white,orange,white,right,,,,,0,185,185,62,,,,,,,,,right,1.1561427999986336,957.5005873999908,None,,,,,lp2,002,2019_Sep_24_1639,StressSession,3.2.3,59.556175466185344,
,,,,cyan,brown,cyan,brown,right,,,,,0,186,186,43,,,,,,,,,right,0.7101556999841705,959.202649599989,None,,,,,lp2,002,2019_Sep_24_1639,StressSession,3.2.3,59.556175466185344,
,,,,white,blue,blue,white,left,,,,,0,187,187,202,,,,,,,,,left,0.934219499991741,960.466856700019,None,,,,,lp2,002,2019_Sep_24_1639,StressSession,3.2.3,59.556175466185344,
,,,,red,purple,purple,red,left,,,,,0,188,188,116,,,,,,,,,left,0.9817223999998532,961.9397750999779,None,,,,,lp2,002,2019_Sep_24_1639,StressSession,3.2.3,59.556175466185344,
,,,,brown,red,red,brown,left,,,,,0,189,189,192,,,,,,,,,left,0.9326316000078805,963.4682479000185,None,,,,,lp2,002,2019_Sep_24_1639,StressSession,3.2.3,59.556175466185344,
,,,,black,purple,purple,black,left,,,,,0,190,190,217,,,,,,,,,left,0.606420399970375,964.9473613000009,None,,,,,lp2,002,2019_Sep_24_1639,StressSession,3.2.3,59.556175466185344,
,,,,red,magenta,red,magenta,right,,,,,0,191,191,2,,,,,,,,,right,0.5519114999915473,966.096988699981,None,,,,,lp2,002,2019_Sep_24_1639,StressSession,3.2.3,59.556175466185344,
,,,,yellow,white,white,yellow,left,,,,,0,192,192,163,,,,,,,,,left,0.6803332999697886,967.200448299991,None,,,,,lp2,002,2019_Sep_24_1639,StressSession,3.2.3,59.556175466185344,
,,,,purple,orange,purple,orange,right,,,,,0,193,193,79,,,,,,,,,right,0.6460328999673948,968.434682000021,None,,,,,lp2,002,2019_Sep_24_1639,StressSession,3.2.3,59.556175466185344,
,,,,magenta,black,black,magenta,left,,,,,0,194,194,146,,,,,,,,,left,0.5883448000531644,969.6366670000134,None,,,,,lp2,002,2019_Sep_24_1639,StressSession,3.2.3,59.556175466185344,
,,,,cyan,magenta,magenta,cyan,left,,,,,0,195,195,159,,,,,,,,,left,0.6690149999922141,970.7800307999714,None,,,,,lp2,002,2019_Sep_24_1639,StressSession,3.2.3,59.556175466185344,
,,,,white,black,white,black,right,,,,,0,196,196,90,,,,,,,,,right,0.5808949999627657,971.9962544000009,None,,,,,lp2,002,2019_Sep_24_1639,StressSession,3.2.3,59.556175466185344,
,,,,magenta,white,white,magenta,left,,,,,0,197,197,145,,,,,,,,,left,0.7831128000398166,973.1295358000207,None,,,,,lp2,002,2019_Sep_24_1639,StressSession,3.2.3,59.556175466185344,
,,,,green,yellow,yellow,green,left,,,,,0,198,198,132,,,,,,,,,right,0.5268472000025213,974.4659376000054,None,,,,,lp2,002,2019_Sep_24_1639,StressSession,3.2.3,59.556175466185344,
,,,,white,brown,white,brown,right,,,,,0,199,199,99,,,,,,,,,right,0.8954055999638513,975.5454850000096,None,,,,,lp2,002,2019_Sep_24_1639,StressSession,3.2.3,59.556175466185344,
,,,,orange,green,orange,green,right,,,,,0,200,200,66,,,,,,,,,right,0.699611600022763,976.9972571000108,None,,,,,lp2,002,2019_Sep_24_1639,StressSession,3.2.3,59.556175466185344,
,,,,purple,blue,purple,blue,right,,,,,0,201,201,74,,,,,,,,,right,0.8423304000170901,978.246329799993,None,,,,,lp2,002,2019_Sep_24_1639,StressSession,3.2.3,59.556175466185344,
,,,,cyan,white,white,cyan,left,,,,,0,202,202,154,,,,,,,,,left,0.7308282000012696,979.6459626000142,None,,,,,lp2,002,2019_Sep_24_1639,StressSession,3.2.3,59.556175466185344,
,,,,black,orange,black,orange,right,,,,,0,203,203,106,,,,,,,,,right,0.7890157999936491,980.923814299982,None,,,,,lp2,002,2019_Sep_24_1639,StressSession,3.2.3,59.556175466185344,
,,,,white,magenta,white,magenta,right,,,,,0,204,204,94,,,,,,,,,right,1.5095305999857374,982.2593745000195,None,,,,,lp2,002,2019_Sep_24_1639,StressSession,3.2.3,59.556175466185344,
,,,,black,purple,black,purple,right,,,,,0,205,205,107,,,,,,,,,right,0.8847245000069961,984.3080576999928,None,,,,,lp2,002,2019_Sep_24_1639,StressSession,3.2.3,59.556175466185344,
,,,,blue,cyan,cyan,blue,left,,,,,0,206,206,122,,,,,,,,,left,0.6772938999929465,985.739768999978,None,,,,,lp2,002,2019_Sep_24_1639,StressSession,3.2.3,59.556175466185344,
,,,,green,blue,green,blue,right,,,,,0,207,207,29,,,,,,,,,right,0.8007618000265211,986.9523595999926,None,,,,,lp2,002,2019_Sep_24_1639,StressSession,3.2.3,59.556175466185344,
,,,,brown,red,brown,red,right,,,,,0,208,208,82,,,,,,,,,right,0.7812529999646358,988.3074424000224,None,,,,,lp2,002,2019_Sep_24_1639,StressSession,3.2.3,59.556175466185344,
,,,,cyan,red,red,cyan,left,,,,,0,209,209,156,,,,,,,,,left,0.6067680999985896,989.6425400999724,None,,,,,lp2,002,2019_Sep_24_1639,StressSession,3.2.3,59.556175466185344,
,,,,cyan,magenta,cyan,magenta,right,,,,,0,210,210,49,,,,,,,,,right,0.7263880000100471,990.7873032999923,None,,,,,lp2,002,2019_Sep_24_1639,StressSession,3.2.3,59.556175466185344,
,,,,red,green,red,green,right,,,,,0,211,211,1,,,,,,,,,right,0.7518195000011474,992.0571040000068,None,,,,,lp2,002,2019_Sep_24_1639,StressSession,3.2.3,59.556175466185344,
,,,,purple,cyan,cyan,purple,left,,,,,0,212,212,187,,,,,,,,,left,0.6967112999991514,993.36009620002,None,,,,,lp2,002,2019_Sep_24_1639,StressSession,3.2.3,59.556175466185344,
,,,,magenta,green,green,magenta,left,,,,,0,213,213,149,,,,,,,,,right,0.675975100020878,994.6127343999688,None,,,,,lp2,002,2019_Sep_24_1639,StressSession,3.2.3,59.556175466185344,
,,,,orange,yellow,orange,yellow,right,,,,,0,214,214,69,,,,,,,,,right,0.8349028999800794,995.8460619999678,None,,,,,lp2,002,2019_Sep_24_1639,StressSession,3.2.3,59.556175466185344,
,,,,brown,green,brown,green,right,,,,,0,215,215,84,,,,,,,,,right,1.4377528000040911,997.2272155999672,None,,,,,lp2,002,2019_Sep_24_1639,StressSession,3.2.3,59.556175466185344,
,,,,orange,purple,orange,purple,right,,,,,0,216,216,60,,,,,,,,,right,1.0365722000133246,999.2121159000089,None,,,,,lp2,002,2019_Sep_24_1639,StressSession,3.2.3,59.556175466185344,
,,,,blue,cyan,blue,cyan,right,,,,,0,217,217,12,,,,,,,,,right,0.6759819000144489,1000.7887976000202,None,,,,,lp2,002,2019_Sep_24_1639,StressSession,3.2.3,59.556175466185344,
,,,,purple,cyan,purple,cyan,right,,,,,0,218,218,77,,,,,,,,,right,1.0678424999932759,1002.0049439999857,None,,,,,lp2,002,2019_Sep_24_1639,StressSession,3.2.3,59.556175466185344,
,,,,cyan,brown,brown,cyan,left,,,,,0,219,219,153,,,,,,,,,left,1.159189099969808,1003.6183173999889,None,,,,,lp2,002,2019_Sep_24_1639,StressSession,3.2.3,59.556175466185344,
,,,,,,,,,,,,,,,,,,,,4,19.178,,,,,,,,2019-09-24_16:56:31,,,,lp2,002,2019_Sep_24_1639,StressSession,3.2.3,59.556175466185344,
,,,,,,,,,,,,,,,,,,,,,,3,11.296,,,,,,,,,,lp2,002,2019_Sep_24_1639,StressSession,3.2.3,59.556175466185344,
,,,,,,,,,,,,,,,,,,,,3,34.692,,,,,,,,,2019-09-24_16:57:40,2019-09-24_17:02:40,,lp2,002,2019_Sep_24_1639,StressSession,3.2.3,59.556175466185344,
,,,,,,,,,,,,,,,,,,,,,,,,,,,,,,,,2019-09-24_17:03:19,,,,,,,
