Tick,Color,Tone,TimeDur,WordItem,WordColor,AnsLeft,AnsRight,AnsCorr,tick.thisRepN,tick.thisTrialN,tick.thisN,tick.thisIndex,stroop_trials.thisRepN,stroop_trials.thisTrialN,stroop_trials.thisN,stroop_trials.thisIndex,start_session_two,start_stress_one,end_stress_one,rating_evaluation_one.response,rating_evaluation_one.rt,rating_evaluation_two.response,rating_evaluation_two.rt,start_stress_two,key_resp_part_two_meas.keys,key_resp_part_two_meas.rt,key_resp_part_two_meas.started,key_resp_part_two_meas.stopped,end_stress_two,start_cooldown_measurement,end_cooldown_measurement,end_session_two,participant,session,date,expName,psychopyVersion,frameRate,
1,green,440,1.0,,,,,,0,0,0,0,,,,,2019-09-26_11:36:37,2019-09-26_11:38:15,,,,,,,,,,,,,,,pg,002,2019_Sep_26_1136,StressSession,3.1.3,59.984823046462786,
2,green,440,1.0,,,,,,0,1,1,1,,,,,,,,,,,,,,,,,,,,,pg,002,2019_Sep_26_1136,StressSession,3.1.3,59.984823046462786,
3,green,440,1.0,,,,,,0,2,2,2,,,,,,,,,,,,,,,,,,,,,pg,002,2019_Sep_26_1136,StressSession,3.1.3,59.984823046462786,
4,green,440,1.0,,,,,,0,3,3,3,,,,,,,,,,,,,,,,,,,,,pg,002,2019_Sep_26_1136,StressSession,3.1.3,59.984823046462786,
5,green,440,1.0,,,,,,0,4,4,4,,,,,,,,,,,,,,,,,,,,,pg,002,2019_Sep_26_1136,StressSession,3.1.3,59.984823046462786,
6,green,440,1.0,,,,,,0,5,5,5,,,,,,,,,,,,,,,,,,,,,pg,002,2019_Sep_26_1136,StressSession,3.1.3,59.984823046462786,
7,green,440,1.0,,,,,,0,6,6,6,,,,,,,,,,,,,,,,,,,,,pg,002,2019_Sep_26_1136,StressSession,3.1.3,59.984823046462786,
8,green,440,1.0,,,,,,0,7,7,7,,,,,,,,,,,,,,,,,,,,,pg,002,2019_Sep_26_1136,StressSession,3.1.3,59.984823046462786,
9,green,440,1.0,,,,,,0,8,8,8,,,,,,,,,,,,,,,,,,,,,pg,002,2019_Sep_26_1136,StressSession,3.1.3,59.984823046462786,
10,green,440,1.0,,,,,,0,9,9,9,,,,,,,,,,,,,,,,,,,,,pg,002,2019_Sep_26_1136,StressSession,3.1.3,59.984823046462786,
11,green,440,1.0,,,,,,0,10,10,10,,,,,,,,,,,,,,,,,,,,,pg,002,2019_Sep_26_1136,StressSession,3.1.3,59.984823046462786,
12,green,440,1.0,,,,,,0,11,11,11,,,,,,,,,,,,,,,,,,,,,pg,002,2019_Sep_26_1136,StressSession,3.1.3,59.984823046462786,
13,green,440,1.0,,,,,,0,12,12,12,,,,,,,,,,,,,,,,,,,,,pg,002,2019_Sep_26_1136,StressSession,3.1.3,59.984823046462786,
14,green,440,1.0,,,,,,0,13,13,13,,,,,,,,,,,,,,,,,,,,,pg,002,2019_Sep_26_1136,StressSession,3.1.3,59.984823046462786,
15,green,440,1.0,,,,,,0,14,14,14,,,,,,,,,,,,,,,,,,,,,pg,002,2019_Sep_26_1136,StressSession,3.1.3,59.984823046462786,
16,green,440,1.0,,,,,,0,15,15,15,,,,,,,,,,,,,,,,,,,,,pg,002,2019_Sep_26_1136,StressSession,3.1.3,59.984823046462786,
17,green,440,1.0,,,,,,0,16,16,16,,,,,,,,,,,,,,,,,,,,,pg,002,2019_Sep_26_1136,StressSession,3.1.3,59.984823046462786,
18,green,440,1.0,,,,,,0,17,17,17,,,,,,,,,,,,,,,,,,,,,pg,002,2019_Sep_26_1136,StressSession,3.1.3,59.984823046462786,
19,green,440,1.0,,,,,,0,18,18,18,,,,,,,,,,,,,,,,,,,,,pg,002,2019_Sep_26_1136,StressSession,3.1.3,59.984823046462786,
20,green,440,1.0,,,,,,0,19,19,19,,,,,,,,,,,,,,,,,,,,,pg,002,2019_Sep_26_1136,StressSession,3.1.3,59.984823046462786,
21,green,440,1.0,,,,,,0,20,20,20,,,,,,,,,,,,,,,,,,,,,pg,002,2019_Sep_26_1136,StressSession,3.1.3,59.984823046462786,
22,green,440,1.0,,,,,,0,21,21,21,,,,,,,,,,,,,,,,,,,,,pg,002,2019_Sep_26_1136,StressSession,3.1.3,59.984823046462786,
23,green,440,1.0,,,,,,0,22,22,22,,,,,,,,,,,,,,,,,,,,,pg,002,2019_Sep_26_1136,StressSession,3.1.3,59.984823046462786,
24,green,440,1.0,,,,,,0,23,23,23,,,,,,,,,,,,,,,,,,,,,pg,002,2019_Sep_26_1136,StressSession,3.1.3,59.984823046462786,
25,green,440,1.0,,,,,,0,24,24,24,,,,,,,,,,,,,,,,,,,,,pg,002,2019_Sep_26_1136,StressSession,3.1.3,59.984823046462786,
26,green,440,1.0,,,,,,0,25,25,25,,,,,,,,,,,,,,,,,,,,,pg,002,2019_Sep_26_1136,StressSession,3.1.3,59.984823046462786,
27,green,440,1.0,,,,,,0,26,26,26,,,,,,,,,,,,,,,,,,,,,pg,002,2019_Sep_26_1136,StressSession,3.1.3,59.984823046462786,
28,green,440,1.0,,,,,,0,27,27,27,,,,,,,,,,,,,,,,,,,,,pg,002,2019_Sep_26_1136,StressSession,3.1.3,59.984823046462786,
29,green,440,1.0,,,,,,0,28,28,28,,,,,,,,,,,,,,,,,,,,,pg,002,2019_Sep_26_1136,StressSession,3.1.3,59.984823046462786,
30,green,440,1.0,,,,,,0,29,29,29,,,,,,,,,,,,,,,,,,,,,pg,002,2019_Sep_26_1136,StressSession,3.1.3,59.984823046462786,
31,green,440,1.0,,,,,,0,30,30,30,,,,,,,,,,,,,,,,,,,,,pg,002,2019_Sep_26_1136,StressSession,3.1.3,59.984823046462786,
32,green,440,1.0,,,,,,0,31,31,31,,,,,,,,,,,,,,,,,,,,,pg,002,2019_Sep_26_1136,StressSession,3.1.3,59.984823046462786,
33,green,440,1.0,,,,,,0,32,32,32,,,,,,,,,,,,,,,,,,,,,pg,002,2019_Sep_26_1136,StressSession,3.1.3,59.984823046462786,
34,green,440,1.0,,,,,,0,33,33,33,,,,,,,,,,,,,,,,,,,,,pg,002,2019_Sep_26_1136,StressSession,3.1.3,59.984823046462786,
35,green,440,1.0,,,,,,0,34,34,34,,,,,,,,,,,,,,,,,,,,,pg,002,2019_Sep_26_1136,StressSession,3.1.3,59.984823046462786,
36,green,440,1.0,,,,,,0,35,35,35,,,,,,,,,,,,,,,,,,,,,pg,002,2019_Sep_26_1136,StressSession,3.1.3,59.984823046462786,
37,green,440,1.0,,,,,,0,36,36,36,,,,,,,,,,,,,,,,,,,,,pg,002,2019_Sep_26_1136,StressSession,3.1.3,59.984823046462786,
38,green,440,1.0,,,,,,0,37,37,37,,,,,,,,,,,,,,,,,,,,,pg,002,2019_Sep_26_1136,StressSession,3.1.3,59.984823046462786,
39,green,440,1.0,,,,,,0,38,38,38,,,,,,,,,,,,,,,,,,,,,pg,002,2019_Sep_26_1136,StressSession,3.1.3,59.984823046462786,
40,green,440,1.0,,,,,,0,39,39,39,,,,,,,,,,,,,,,,,,,,,pg,002,2019_Sep_26_1136,StressSession,3.1.3,59.984823046462786,
41,green,440,1.0,,,,,,0,40,40,40,,,,,,,,,,,,,,,,,,,,,pg,002,2019_Sep_26_1136,StressSession,3.1.3,59.984823046462786,
42,green,440,1.0,,,,,,0,41,41,41,,,,,,,,,,,,,,,,,,,,,pg,002,2019_Sep_26_1136,StressSession,3.1.3,59.984823046462786,
43,green,440,1.0,,,,,,0,42,42,42,,,,,,,,,,,,,,,,,,,,,pg,002,2019_Sep_26_1136,StressSession,3.1.3,59.984823046462786,
44,green,440,1.0,,,,,,0,43,43,43,,,,,,,,,,,,,,,,,,,,,pg,002,2019_Sep_26_1136,StressSession,3.1.3,59.984823046462786,
45,green,440,1.0,,,,,,0,44,44,44,,,,,,,,,,,,,,,,,,,,,pg,002,2019_Sep_26_1136,StressSession,3.1.3,59.984823046462786,
46,green,440,1.0,,,,,,0,45,45,45,,,,,,,,,,,,,,,,,,,,,pg,002,2019_Sep_26_1136,StressSession,3.1.3,59.984823046462786,
47,green,440,1.0,,,,,,0,46,46,46,,,,,,,,,,,,,,,,,,,,,pg,002,2019_Sep_26_1136,StressSession,3.1.3,59.984823046462786,
48,green,440,1.0,,,,,,0,47,47,47,,,,,,,,,,,,,,,,,,,,,pg,002,2019_Sep_26_1136,StressSession,3.1.3,59.984823046462786,
49,green,440,1.0,,,,,,0,48,48,48,,,,,,,,,,,,,,,,,,,,,pg,002,2019_Sep_26_1136,StressSession,3.1.3,59.984823046462786,
50,green,440,1.0,,,,,,0,49,49,49,,,,,,,,,,,,,,,,,,,,,pg,002,2019_Sep_26_1136,StressSession,3.1.3,59.984823046462786,
51,green,440,1.0,,,,,,0,50,50,50,,,,,,,,,,,,,,,,,,,,,pg,002,2019_Sep_26_1136,StressSession,3.1.3,59.984823046462786,
52,green,440,1.0,,,,,,0,51,51,51,,,,,,,,,,,,,,,,,,,,,pg,002,2019_Sep_26_1136,StressSession,3.1.3,59.984823046462786,
53,green,440,1.0,,,,,,0,52,52,52,,,,,,,,,,,,,,,,,,,,,pg,002,2019_Sep_26_1136,StressSession,3.1.3,59.984823046462786,
54,green,440,1.0,,,,,,0,53,53,53,,,,,,,,,,,,,,,,,,,,,pg,002,2019_Sep_26_1136,StressSession,3.1.3,59.984823046462786,
55,green,440,1.0,,,,,,0,54,54,54,,,,,,,,,,,,,,,,,,,,,pg,002,2019_Sep_26_1136,StressSession,3.1.3,59.984823046462786,
56,green,440,1.0,,,,,,0,55,55,55,,,,,,,,,,,,,,,,,,,,,pg,002,2019_Sep_26_1136,StressSession,3.1.3,59.984823046462786,
57,green,440,1.0,,,,,,0,56,56,56,,,,,,,,,,,,,,,,,,,,,pg,002,2019_Sep_26_1136,StressSession,3.1.3,59.984823046462786,
58,green,440,1.0,,,,,,0,57,57,57,,,,,,,,,,,,,,,,,,,,,pg,002,2019_Sep_26_1136,StressSession,3.1.3,59.984823046462786,
59,green,440,1.0,,,,,,0,58,58,58,,,,,,,,,,,,,,,,,,,,,pg,002,2019_Sep_26_1136,StressSession,3.1.3,59.984823046462786,
60,green,440,1.0,,,,,,0,59,59,59,,,,,,,,,,,,,,,,,,,,,pg,002,2019_Sep_26_1136,StressSession,3.1.3,59.984823046462786,
61,green,440,1.0,,,,,,0,60,60,60,,,,,,,,,,,,,,,,,,,,,pg,002,2019_Sep_26_1136,StressSession,3.1.3,59.984823046462786,
62,green,440,1.0,,,,,,0,61,61,61,,,,,,,,,,,,,,,,,,,,,pg,002,2019_Sep_26_1136,StressSession,3.1.3,59.984823046462786,
63,green,440,1.0,,,,,,0,62,62,62,,,,,,,,,,,,,,,,,,,,,pg,002,2019_Sep_26_1136,StressSession,3.1.3,59.984823046462786,
64,green,440,1.0,,,,,,0,63,63,63,,,,,,,,,,,,,,,,,,,,,pg,002,2019_Sep_26_1136,StressSession,3.1.3,59.984823046462786,
65,green,440,1.0,,,,,,0,64,64,64,,,,,,,,,,,,,,,,,,,,,pg,002,2019_Sep_26_1136,StressSession,3.1.3,59.984823046462786,
66,green,440,1.0,,,,,,0,65,65,65,,,,,,,,,,,,,,,,,,,,,pg,002,2019_Sep_26_1136,StressSession,3.1.3,59.984823046462786,
67,green,440,1.0,,,,,,0,66,66,66,,,,,,,,,,,,,,,,,,,,,pg,002,2019_Sep_26_1136,StressSession,3.1.3,59.984823046462786,
68,green,440,1.0,,,,,,0,67,67,67,,,,,,,,,,,,,,,,,,,,,pg,002,2019_Sep_26_1136,StressSession,3.1.3,59.984823046462786,
69,green,440,1.0,,,,,,0,68,68,68,,,,,,,,,,,,,,,,,,,,,pg,002,2019_Sep_26_1136,StressSession,3.1.3,59.984823046462786,
70,green,440,1.0,,,,,,0,69,69,69,,,,,,,,,,,,,,,,,,,,,pg,002,2019_Sep_26_1136,StressSession,3.1.3,59.984823046462786,
71,green,440,1.0,,,,,,0,70,70,70,,,,,,,,,,,,,,,,,,,,,pg,002,2019_Sep_26_1136,StressSession,3.1.3,59.984823046462786,
72,green,440,1.0,,,,,,0,71,71,71,,,,,,,,,,,,,,,,,,,,,pg,002,2019_Sep_26_1136,StressSession,3.1.3,59.984823046462786,
73,green,440,1.0,,,,,,0,72,72,72,,,,,,,,,,,,,,,,,,,,,pg,002,2019_Sep_26_1136,StressSession,3.1.3,59.984823046462786,
74,green,440,1.0,,,,,,0,73,73,73,,,,,,,,,,,,,,,,,,,,,pg,002,2019_Sep_26_1136,StressSession,3.1.3,59.984823046462786,
75,green,440,1.0,,,,,,0,74,74,74,,,,,,,,,,,,,,,,,,,,,pg,002,2019_Sep_26_1136,StressSession,3.1.3,59.984823046462786,
76,green,440,1.0,,,,,,0,75,75,75,,,,,,,,,,,,,,,,,,,,,pg,002,2019_Sep_26_1136,StressSession,3.1.3,59.984823046462786,
77,green,440,1.0,,,,,,0,76,76,76,,,,,,,,,,,,,,,,,,,,,pg,002,2019_Sep_26_1136,StressSession,3.1.3,59.984823046462786,
78,green,440,1.0,,,,,,0,77,77,77,,,,,,,,,,,,,,,,,,,,,pg,002,2019_Sep_26_1136,StressSession,3.1.3,59.984823046462786,
79,green,440,1.0,,,,,,0,78,78,78,,,,,,,,,,,,,,,,,,,,,pg,002,2019_Sep_26_1136,StressSession,3.1.3,59.984823046462786,
80,green,440,1.0,,,,,,0,79,79,79,,,,,,,,,,,,,,,,,,,,,pg,002,2019_Sep_26_1136,StressSession,3.1.3,59.984823046462786,
81,green,440,1.0,,,,,,0,80,80,80,,,,,,,,,,,,,,,,,,,,,pg,002,2019_Sep_26_1136,StressSession,3.1.3,59.984823046462786,
82,green,440,1.0,,,,,,0,81,81,81,,,,,,,,,,,,,,,,,,,,,pg,002,2019_Sep_26_1136,StressSession,3.1.3,59.984823046462786,
83,green,440,1.0,,,,,,0,82,82,82,,,,,,,,,,,,,,,,,,,,,pg,002,2019_Sep_26_1136,StressSession,3.1.3,59.984823046462786,
84,green,440,1.0,,,,,,0,83,83,83,,,,,,,,,,,,,,,,,,,,,pg,002,2019_Sep_26_1136,StressSession,3.1.3,59.984823046462786,
85,green,440,1.0,,,,,,0,84,84,84,,,,,,,,,,,,,,,,,,,,,pg,002,2019_Sep_26_1136,StressSession,3.1.3,59.984823046462786,
86,green,440,1.0,,,,,,0,85,85,85,,,,,,,,,,,,,,,,,,,,,pg,002,2019_Sep_26_1136,StressSession,3.1.3,59.984823046462786,
87,green,440,1.0,,,,,,0,86,86,86,,,,,,,,,,,,,,,,,,,,,pg,002,2019_Sep_26_1136,StressSession,3.1.3,59.984823046462786,
88,green,440,1.0,,,,,,0,87,87,87,,,,,,,,,,,,,,,,,,,,,pg,002,2019_Sep_26_1136,StressSession,3.1.3,59.984823046462786,
89,green,440,1.0,,,,,,0,88,88,88,,,,,,,,,,,,,,,,,,,,,pg,002,2019_Sep_26_1136,StressSession,3.1.3,59.984823046462786,
90,green,440,1.0,,,,,,0,89,89,89,,,,,,,,,,,,,,,,,,,,,pg,002,2019_Sep_26_1136,StressSession,3.1.3,59.984823046462786,
91,green,440,1.0,,,,,,0,90,90,90,,,,,,,,,,,,,,,,,,,,,pg,002,2019_Sep_26_1136,StressSession,3.1.3,59.984823046462786,
92,green,440,1.0,,,,,,0,91,91,91,,,,,,,,,,,,,,,,,,,,,pg,002,2019_Sep_26_1136,StressSession,3.1.3,59.984823046462786,
93,green,440,1.0,,,,,,0,92,92,92,,,,,,,,,,,,,,,,,,,,,pg,002,2019_Sep_26_1136,StressSession,3.1.3,59.984823046462786,
94,green,440,1.0,,,,,,0,93,93,93,,,,,,,,,,,,,,,,,,,,,pg,002,2019_Sep_26_1136,StressSession,3.1.3,59.984823046462786,
95,green,440,1.0,,,,,,0,94,94,94,,,,,,,,,,,,,,,,,,,,,pg,002,2019_Sep_26_1136,StressSession,3.1.3,59.984823046462786,
96,green,440,1.0,,,,,,0,95,95,95,,,,,,,,,,,,,,,,,,,,,pg,002,2019_Sep_26_1136,StressSession,3.1.3,59.984823046462786,
97,green,440,1.0,,,,,,0,96,96,96,,,,,,,,,,,,,,,,,,,,,pg,002,2019_Sep_26_1136,StressSession,3.1.3,59.984823046462786,
98,green,440,1.0,,,,,,0,97,97,97,,,,,,,,,,,,,,,,,,,,,pg,002,2019_Sep_26_1136,StressSession,3.1.3,59.984823046462786,
99,green,440,1.0,,,,,,0,98,98,98,,,,,,,,,,,,,,,,,,,,,pg,002,2019_Sep_26_1136,StressSession,3.1.3,59.984823046462786,
100,green,440,1.0,,,,,,0,99,99,99,,,,,,,,,,,,,,,,,,,,,pg,002,2019_Sep_26_1136,StressSession,3.1.3,59.984823046462786,
101,green,440,1.0,,,,,,0,100,100,100,,,,,,,,,,,,,,,,,,,,,pg,002,2019_Sep_26_1136,StressSession,3.1.3,59.984823046462786,
102,green,440,1.0,,,,,,0,101,101,101,,,,,,,,,,,,,,,,,,,,,pg,002,2019_Sep_26_1136,StressSession,3.1.3,59.984823046462786,
103,green,440,1.0,,,,,,0,102,102,102,,,,,,,,,,,,,,,,,,,,,pg,002,2019_Sep_26_1136,StressSession,3.1.3,59.984823046462786,
104,green,440,1.0,,,,,,0,103,103,103,,,,,,,,,,,,,,,,,,,,,pg,002,2019_Sep_26_1136,StressSession,3.1.3,59.984823046462786,
105,green,440,1.0,,,,,,0,104,104,104,,,,,,,,,,,,,,,,,,,,,pg,002,2019_Sep_26_1136,StressSession,3.1.3,59.984823046462786,
106,green,440,1.0,,,,,,0,105,105,105,,,,,,,,,,,,,,,,,,,,,pg,002,2019_Sep_26_1136,StressSession,3.1.3,59.984823046462786,
107,green,440,1.0,,,,,,0,106,106,106,,,,,,,,,,,,,,,,,,,,,pg,002,2019_Sep_26_1136,StressSession,3.1.3,59.984823046462786,
108,green,440,1.0,,,,,,0,107,107,107,,,,,,,,,,,,,,,,,,,,,pg,002,2019_Sep_26_1136,StressSession,3.1.3,59.984823046462786,
109,green,440,1.0,,,,,,0,108,108,108,,,,,,,,,,,,,,,,,,,,,pg,002,2019_Sep_26_1136,StressSession,3.1.3,59.984823046462786,
110,green,440,1.0,,,,,,0,109,109,109,,,,,,,,,,,,,,,,,,,,,pg,002,2019_Sep_26_1136,StressSession,3.1.3,59.984823046462786,
111,green,440,1.0,,,,,,0,110,110,110,,,,,,,,,,,,,,,,,,,,,pg,002,2019_Sep_26_1136,StressSession,3.1.3,59.984823046462786,
112,green,440,1.0,,,,,,0,111,111,111,,,,,,,,,,,,,,,,,,,,,pg,002,2019_Sep_26_1136,StressSession,3.1.3,59.984823046462786,
113,green,440,1.0,,,,,,0,112,112,112,,,,,,,,,,,,,,,,,,,,,pg,002,2019_Sep_26_1136,StressSession,3.1.3,59.984823046462786,
114,green,440,1.0,,,,,,0,113,113,113,,,,,,,,,,,,,,,,,,,,,pg,002,2019_Sep_26_1136,StressSession,3.1.3,59.984823046462786,
115,green,440,1.0,,,,,,0,114,114,114,,,,,,,,,,,,,,,,,,,,,pg,002,2019_Sep_26_1136,StressSession,3.1.3,59.984823046462786,
116,green,440,1.0,,,,,,0,115,115,115,,,,,,,,,,,,,,,,,,,,,pg,002,2019_Sep_26_1136,StressSession,3.1.3,59.984823046462786,
117,green,440,1.0,,,,,,0,116,116,116,,,,,,,,,,,,,,,,,,,,,pg,002,2019_Sep_26_1136,StressSession,3.1.3,59.984823046462786,
118,green,440,1.0,,,,,,0,117,117,117,,,,,,,,,,,,,,,,,,,,,pg,002,2019_Sep_26_1136,StressSession,3.1.3,59.984823046462786,
119,green,440,1.0,,,,,,0,118,118,118,,,,,,,,,,,,,,,,,,,,,pg,002,2019_Sep_26_1136,StressSession,3.1.3,59.984823046462786,
120,green,440,1.0,,,,,,0,119,119,119,,,,,,,,,,,,,,,,,,,,,pg,002,2019_Sep_26_1136,StressSession,3.1.3,59.984823046462786,
121,green,440,1.0,,,,,,0,120,120,120,,,,,,,,,,,,,,,,,,,,,pg,002,2019_Sep_26_1136,StressSession,3.1.3,59.984823046462786,
122,green,440,1.0,,,,,,0,121,121,121,,,,,,,,,,,,,,,,,,,,,pg,002,2019_Sep_26_1136,StressSession,3.1.3,59.984823046462786,
123,green,440,1.0,,,,,,0,122,122,122,,,,,,,,,,,,,,,,,,,,,pg,002,2019_Sep_26_1136,StressSession,3.1.3,59.984823046462786,
124,green,440,1.0,,,,,,0,123,123,123,,,,,,,,,,,,,,,,,,,,,pg,002,2019_Sep_26_1136,StressSession,3.1.3,59.984823046462786,
125,green,440,1.0,,,,,,0,124,124,124,,,,,,,,,,,,,,,,,,,,,pg,002,2019_Sep_26_1136,StressSession,3.1.3,59.984823046462786,
126,green,440,1.0,,,,,,0,125,125,125,,,,,,,,,,,,,,,,,,,,,pg,002,2019_Sep_26_1136,StressSession,3.1.3,59.984823046462786,
127,green,440,1.0,,,,,,0,126,126,126,,,,,,,,,,,,,,,,,,,,,pg,002,2019_Sep_26_1136,StressSession,3.1.3,59.984823046462786,
128,green,440,1.0,,,,,,0,127,127,127,,,,,,,,,,,,,,,,,,,,,pg,002,2019_Sep_26_1136,StressSession,3.1.3,59.984823046462786,
129,green,440,1.0,,,,,,0,128,128,128,,,,,,,,,,,,,,,,,,,,,pg,002,2019_Sep_26_1136,StressSession,3.1.3,59.984823046462786,
130,green,440,1.0,,,,,,0,129,129,129,,,,,,,,,,,,,,,,,,,,,pg,002,2019_Sep_26_1136,StressSession,3.1.3,59.984823046462786,
131,green,440,1.0,,,,,,0,130,130,130,,,,,,,,,,,,,,,,,,,,,pg,002,2019_Sep_26_1136,StressSession,3.1.3,59.984823046462786,
132,green,440,1.0,,,,,,0,131,131,131,,,,,,,,,,,,,,,,,,,,,pg,002,2019_Sep_26_1136,StressSession,3.1.3,59.984823046462786,
133,green,440,1.0,,,,,,0,132,132,132,,,,,,,,,,,,,,,,,,,,,pg,002,2019_Sep_26_1136,StressSession,3.1.3,59.984823046462786,
134,green,440,1.0,,,,,,0,133,133,133,,,,,,,,,,,,,,,,,,,,,pg,002,2019_Sep_26_1136,StressSession,3.1.3,59.984823046462786,
135,green,440,1.0,,,,,,0,134,134,134,,,,,,,,,,,,,,,,,,,,,pg,002,2019_Sep_26_1136,StressSession,3.1.3,59.984823046462786,
136,green,440,1.0,,,,,,0,135,135,135,,,,,,,,,,,,,,,,,,,,,pg,002,2019_Sep_26_1136,StressSession,3.1.3,59.984823046462786,
137,green,440,1.0,,,,,,0,136,136,136,,,,,,,,,,,,,,,,,,,,,pg,002,2019_Sep_26_1136,StressSession,3.1.3,59.984823046462786,
138,green,440,1.0,,,,,,0,137,137,137,,,,,,,,,,,,,,,,,,,,,pg,002,2019_Sep_26_1136,StressSession,3.1.3,59.984823046462786,
139,green,440,1.0,,,,,,0,138,138,138,,,,,,,,,,,,,,,,,,,,,pg,002,2019_Sep_26_1136,StressSession,3.1.3,59.984823046462786,
140,green,440,1.0,,,,,,0,139,139,139,,,,,,,,,,,,,,,,,,,,,pg,002,2019_Sep_26_1136,StressSession,3.1.3,59.984823046462786,
141,green,440,1.0,,,,,,0,140,140,140,,,,,,,,,,,,,,,,,,,,,pg,002,2019_Sep_26_1136,StressSession,3.1.3,59.984823046462786,
142,green,440,1.0,,,,,,0,141,141,141,,,,,,,,,,,,,,,,,,,,,pg,002,2019_Sep_26_1136,StressSession,3.1.3,59.984823046462786,
143,green,440,1.0,,,,,,0,142,142,142,,,,,,,,,,,,,,,,,,,,,pg,002,2019_Sep_26_1136,StressSession,3.1.3,59.984823046462786,
144,green,440,1.0,,,,,,0,143,143,143,,,,,,,,,,,,,,,,,,,,,pg,002,2019_Sep_26_1136,StressSession,3.1.3,59.984823046462786,
145,green,440,1.0,,,,,,0,144,144,144,,,,,,,,,,,,,,,,,,,,,pg,002,2019_Sep_26_1136,StressSession,3.1.3,59.984823046462786,
146,green,440,1.0,,,,,,0,145,145,145,,,,,,,,,,,,,,,,,,,,,pg,002,2019_Sep_26_1136,StressSession,3.1.3,59.984823046462786,
147,green,440,1.0,,,,,,0,146,146,146,,,,,,,,,,,,,,,,,,,,,pg,002,2019_Sep_26_1136,StressSession,3.1.3,59.984823046462786,
148,green,440,1.0,,,,,,0,147,147,147,,,,,,,,,,,,,,,,,,,,,pg,002,2019_Sep_26_1136,StressSession,3.1.3,59.984823046462786,
149,green,440,1.0,,,,,,0,148,148,148,,,,,,,,,,,,,,,,,,,,,pg,002,2019_Sep_26_1136,StressSession,3.1.3,59.984823046462786,
150,green,440,1.0,,,,,,0,149,149,149,,,,,,,,,,,,,,,,,,,,,pg,002,2019_Sep_26_1136,StressSession,3.1.3,59.984823046462786,
151,green,440,1.0,,,,,,0,150,150,150,,,,,,,,,,,,,,,,,,,,,pg,002,2019_Sep_26_1136,StressSession,3.1.3,59.984823046462786,
152,green,440,1.0,,,,,,0,151,151,151,,,,,,,,,,,,,,,,,,,,,pg,002,2019_Sep_26_1136,StressSession,3.1.3,59.984823046462786,
153,green,440,1.0,,,,,,0,152,152,152,,,,,,,,,,,,,,,,,,,,,pg,002,2019_Sep_26_1136,StressSession,3.1.3,59.984823046462786,
154,green,440,1.0,,,,,,0,153,153,153,,,,,,,,,,,,,,,,,,,,,pg,002,2019_Sep_26_1136,StressSession,3.1.3,59.984823046462786,
155,green,440,1.0,,,,,,0,154,154,154,,,,,,,,,,,,,,,,,,,,,pg,002,2019_Sep_26_1136,StressSession,3.1.3,59.984823046462786,
156,green,440,1.0,,,,,,0,155,155,155,,,,,,,,,,,,,,,,,,,,,pg,002,2019_Sep_26_1136,StressSession,3.1.3,59.984823046462786,
157,green,440,1.0,,,,,,0,156,156,156,,,,,,,,,,,,,,,,,,,,,pg,002,2019_Sep_26_1136,StressSession,3.1.3,59.984823046462786,
158,green,440,1.0,,,,,,0,157,157,157,,,,,,,,,,,,,,,,,,,,,pg,002,2019_Sep_26_1136,StressSession,3.1.3,59.984823046462786,
159,green,440,1.0,,,,,,0,158,158,158,,,,,,,,,,,,,,,,,,,,,pg,002,2019_Sep_26_1136,StressSession,3.1.3,59.984823046462786,
160,green,440,1.0,,,,,,0,159,159,159,,,,,,,,,,,,,,,,,,,,,pg,002,2019_Sep_26_1136,StressSession,3.1.3,59.984823046462786,
161,green,440,1.0,,,,,,0,160,160,160,,,,,,,,,,,,,,,,,,,,,pg,002,2019_Sep_26_1136,StressSession,3.1.3,59.984823046462786,
162,green,440,1.0,,,,,,0,161,161,161,,,,,,,,,,,,,,,,,,,,,pg,002,2019_Sep_26_1136,StressSession,3.1.3,59.984823046462786,
163,green,440,1.0,,,,,,0,162,162,162,,,,,,,,,,,,,,,,,,,,,pg,002,2019_Sep_26_1136,StressSession,3.1.3,59.984823046462786,
164,green,440,1.0,,,,,,0,163,163,163,,,,,,,,,,,,,,,,,,,,,pg,002,2019_Sep_26_1136,StressSession,3.1.3,59.984823046462786,
165,green,440,1.0,,,,,,0,164,164,164,,,,,,,,,,,,,,,,,,,,,pg,002,2019_Sep_26_1136,StressSession,3.1.3,59.984823046462786,
166,green,440,1.0,,,,,,0,165,165,165,,,,,,,,,,,,,,,,,,,,,pg,002,2019_Sep_26_1136,StressSession,3.1.3,59.984823046462786,
167,green,440,1.0,,,,,,0,166,166,166,,,,,,,,,,,,,,,,,,,,,pg,002,2019_Sep_26_1136,StressSession,3.1.3,59.984823046462786,
168,green,440,1.0,,,,,,0,167,167,167,,,,,,,,,,,,,,,,,,,,,pg,002,2019_Sep_26_1136,StressSession,3.1.3,59.984823046462786,
169,green,440,1.0,,,,,,0,168,168,168,,,,,,,,,,,,,,,,,,,,,pg,002,2019_Sep_26_1136,StressSession,3.1.3,59.984823046462786,
170,green,440,1.0,,,,,,0,169,169,169,,,,,,,,,,,,,,,,,,,,,pg,002,2019_Sep_26_1136,StressSession,3.1.3,59.984823046462786,
171,green,440,1.0,,,,,,0,170,170,170,,,,,,,,,,,,,,,,,,,,,pg,002,2019_Sep_26_1136,StressSession,3.1.3,59.984823046462786,
172,green,440,1.0,,,,,,0,171,171,171,,,,,,,,,,,,,,,,,,,,,pg,002,2019_Sep_26_1136,StressSession,3.1.3,59.984823046462786,
173,green,440,1.0,,,,,,0,172,172,172,,,,,,,,,,,,,,,,,,,,,pg,002,2019_Sep_26_1136,StressSession,3.1.3,59.984823046462786,
174,green,440,1.0,,,,,,0,173,173,173,,,,,,,,,,,,,,,,,,,,,pg,002,2019_Sep_26_1136,StressSession,3.1.3,59.984823046462786,
175,green,440,1.0,,,,,,0,174,174,174,,,,,,,,,,,,,,,,,,,,,pg,002,2019_Sep_26_1136,StressSession,3.1.3,59.984823046462786,
176,green,440,1.0,,,,,,0,175,175,175,,,,,,,,,,,,,,,,,,,,,pg,002,2019_Sep_26_1136,StressSession,3.1.3,59.984823046462786,
177,green,440,1.0,,,,,,0,176,176,176,,,,,,,,,,,,,,,,,,,,,pg,002,2019_Sep_26_1136,StressSession,3.1.3,59.984823046462786,
178,green,440,1.0,,,,,,0,177,177,177,,,,,,,,,,,,,,,,,,,,,pg,002,2019_Sep_26_1136,StressSession,3.1.3,59.984823046462786,
179,green,440,1.0,,,,,,0,178,178,178,,,,,,,,,,,,,,,,,,,,,pg,002,2019_Sep_26_1136,StressSession,3.1.3,59.984823046462786,
180,yellow,880,0.5,,,,,,0,179,179,179,,,,,,,,,,,,,,,,,,,,,pg,002,2019_Sep_26_1136,StressSession,3.1.3,59.984823046462786,
181,yellow,880,0.5,,,,,,0,180,180,180,,,,,,,,,,,,,,,,,,,,,pg,002,2019_Sep_26_1136,StressSession,3.1.3,59.984823046462786,
182,yellow,880,0.5,,,,,,0,181,181,181,,,,,,,,,,,,,,,,,,,,,pg,002,2019_Sep_26_1136,StressSession,3.1.3,59.984823046462786,
183,yellow,880,0.5,,,,,,0,182,182,182,,,,,,,,,,,,,,,,,,,,,pg,002,2019_Sep_26_1136,StressSession,3.1.3,59.984823046462786,
184,yellow,880,0.5,,,,,,0,183,183,183,,,,,,,,,,,,,,,,,,,,,pg,002,2019_Sep_26_1136,StressSession,3.1.3,59.984823046462786,
185,yellow,880,0.5,,,,,,0,184,184,184,,,,,,,,,,,,,,,,,,,,,pg,002,2019_Sep_26_1136,StressSession,3.1.3,59.984823046462786,
186,yellow,880,0.5,,,,,,0,185,185,185,,,,,,,,,,,,,,,,,,,,,pg,002,2019_Sep_26_1136,StressSession,3.1.3,59.984823046462786,
187,yellow,880,0.5,,,,,,0,186,186,186,,,,,,,,,,,,,,,,,,,,,pg,002,2019_Sep_26_1136,StressSession,3.1.3,59.984823046462786,
188,yellow,880,0.5,,,,,,0,187,187,187,,,,,,,,,,,,,,,,,,,,,pg,002,2019_Sep_26_1136,StressSession,3.1.3,59.984823046462786,
189,yellow,880,0.5,,,,,,0,188,188,188,,,,,,,,,,,,,,,,,,,,,pg,002,2019_Sep_26_1136,StressSession,3.1.3,59.984823046462786,
190,yellow,880,0.5,,,,,,0,189,189,189,,,,,,,,,,,,,,,,,,,,,pg,002,2019_Sep_26_1136,StressSession,3.1.3,59.984823046462786,
191,yellow,880,0.5,,,,,,0,190,190,190,,,,,,,,,,,,,,,,,,,,,pg,002,2019_Sep_26_1136,StressSession,3.1.3,59.984823046462786,
192,yellow,880,0.5,,,,,,0,191,191,191,,,,,,,,,,,,,,,,,,,,,pg,002,2019_Sep_26_1136,StressSession,3.1.3,59.984823046462786,
193,yellow,880,0.5,,,,,,0,192,192,192,,,,,,,,,,,,,,,,,,,,,pg,002,2019_Sep_26_1136,StressSession,3.1.3,59.984823046462786,
194,yellow,880,0.5,,,,,,0,193,193,193,,,,,,,,,,,,,,,,,,,,,pg,002,2019_Sep_26_1136,StressSession,3.1.3,59.984823046462786,
195,yellow,880,0.5,,,,,,0,194,194,194,,,,,,,,,,,,,,,,,,,,,pg,002,2019_Sep_26_1136,StressSession,3.1.3,59.984823046462786,
196,yellow,880,0.5,,,,,,0,195,195,195,,,,,,,,,,,,,,,,,,,,,pg,002,2019_Sep_26_1136,StressSession,3.1.3,59.984823046462786,
197,yellow,880,0.5,,,,,,0,196,196,196,,,,,,,,,,,,,,,,,,,,,pg,002,2019_Sep_26_1136,StressSession,3.1.3,59.984823046462786,
198,yellow,880,0.5,,,,,,0,197,197,197,,,,,,,,,,,,,,,,,,,,,pg,002,2019_Sep_26_1136,StressSession,3.1.3,59.984823046462786,
199,yellow,880,0.5,,,,,,0,198,198,198,,,,,,,,,,,,,,,,,,,,,pg,002,2019_Sep_26_1136,StressSession,3.1.3,59.984823046462786,
200,yellow,880,0.5,,,,,,0,199,199,199,,,,,,,,,,,,,,,,,,,,,pg,002,2019_Sep_26_1136,StressSession,3.1.3,59.984823046462786,
201,yellow,880,0.5,,,,,,0,200,200,200,,,,,,,,,,,,,,,,,,,,,pg,002,2019_Sep_26_1136,StressSession,3.1.3,59.984823046462786,
202,yellow,880,0.5,,,,,,0,201,201,201,,,,,,,,,,,,,,,,,,,,,pg,002,2019_Sep_26_1136,StressSession,3.1.3,59.984823046462786,
203,yellow,880,0.5,,,,,,0,202,202,202,,,,,,,,,,,,,,,,,,,,,pg,002,2019_Sep_26_1136,StressSession,3.1.3,59.984823046462786,
204,yellow,880,0.5,,,,,,0,203,203,203,,,,,,,,,,,,,,,,,,,,,pg,002,2019_Sep_26_1136,StressSession,3.1.3,59.984823046462786,
205,yellow,880,0.5,,,,,,0,204,204,204,,,,,,,,,,,,,,,,,,,,,pg,002,2019_Sep_26_1136,StressSession,3.1.3,59.984823046462786,
206,yellow,880,0.5,,,,,,0,205,205,205,,,,,,,,,,,,,,,,,,,,,pg,002,2019_Sep_26_1136,StressSession,3.1.3,59.984823046462786,
207,yellow,880,0.5,,,,,,0,206,206,206,,,,,,,,,,,,,,,,,,,,,pg,002,2019_Sep_26_1136,StressSession,3.1.3,59.984823046462786,
208,yellow,880,0.5,,,,,,0,207,207,207,,,,,,,,,,,,,,,,,,,,,pg,002,2019_Sep_26_1136,StressSession,3.1.3,59.984823046462786,
209,yellow,880,0.5,,,,,,0,208,208,208,,,,,,,,,,,,,,,,,,,,,pg,002,2019_Sep_26_1136,StressSession,3.1.3,59.984823046462786,
210,yellow,880,0.5,,,,,,0,209,209,209,,,,,,,,,,,,,,,,,,,,,pg,002,2019_Sep_26_1136,StressSession,3.1.3,59.984823046462786,
211,yellow,880,0.5,,,,,,0,210,210,210,,,,,,,,,,,,,,,,,,,,,pg,002,2019_Sep_26_1136,StressSession,3.1.3,59.984823046462786,
212,yellow,880,0.5,,,,,,0,211,211,211,,,,,,,,,,,,,,,,,,,,,pg,002,2019_Sep_26_1136,StressSession,3.1.3,59.984823046462786,
213,yellow,880,0.5,,,,,,0,212,212,212,,,,,,,,,,,,,,,,,,,,,pg,002,2019_Sep_26_1136,StressSession,3.1.3,59.984823046462786,
214,yellow,880,0.5,,,,,,0,213,213,213,,,,,,,,,,,,,,,,,,,,,pg,002,2019_Sep_26_1136,StressSession,3.1.3,59.984823046462786,
215,yellow,880,0.5,,,,,,0,214,214,214,,,,,,,,,,,,,,,,,,,,,pg,002,2019_Sep_26_1136,StressSession,3.1.3,59.984823046462786,
216,yellow,880,0.5,,,,,,0,215,215,215,,,,,,,,,,,,,,,,,,,,,pg,002,2019_Sep_26_1136,StressSession,3.1.3,59.984823046462786,
217,yellow,880,0.5,,,,,,0,216,216,216,,,,,,,,,,,,,,,,,,,,,pg,002,2019_Sep_26_1136,StressSession,3.1.3,59.984823046462786,
218,yellow,880,0.5,,,,,,0,217,217,217,,,,,,,,,,,,,,,,,,,,,pg,002,2019_Sep_26_1136,StressSession,3.1.3,59.984823046462786,
219,yellow,880,0.5,,,,,,0,218,218,218,,,,,,,,,,,,,,,,,,,,,pg,002,2019_Sep_26_1136,StressSession,3.1.3,59.984823046462786,
220,yellow,880,0.5,,,,,,0,219,219,219,,,,,,,,,,,,,,,,,,,,,pg,002,2019_Sep_26_1136,StressSession,3.1.3,59.984823046462786,
221,yellow,880,0.5,,,,,,0,220,220,220,,,,,,,,,,,,,,,,,,,,,pg,002,2019_Sep_26_1136,StressSession,3.1.3,59.984823046462786,
222,yellow,880,0.5,,,,,,0,221,221,221,,,,,,,,,,,,,,,,,,,,,pg,002,2019_Sep_26_1136,StressSession,3.1.3,59.984823046462786,
223,yellow,880,0.5,,,,,,0,222,222,222,,,,,,,,,,,,,,,,,,,,,pg,002,2019_Sep_26_1136,StressSession,3.1.3,59.984823046462786,
224,yellow,880,0.5,,,,,,0,223,223,223,,,,,,,,,,,,,,,,,,,,,pg,002,2019_Sep_26_1136,StressSession,3.1.3,59.984823046462786,
225,yellow,880,0.5,,,,,,0,224,224,224,,,,,,,,,,,,,,,,,,,,,pg,002,2019_Sep_26_1136,StressSession,3.1.3,59.984823046462786,
226,yellow,880,0.5,,,,,,0,225,225,225,,,,,,,,,,,,,,,,,,,,,pg,002,2019_Sep_26_1136,StressSession,3.1.3,59.984823046462786,
227,yellow,880,0.5,,,,,,0,226,226,226,,,,,,,,,,,,,,,,,,,,,pg,002,2019_Sep_26_1136,StressSession,3.1.3,59.984823046462786,
228,yellow,880,0.5,,,,,,0,227,227,227,,,,,,,,,,,,,,,,,,,,,pg,002,2019_Sep_26_1136,StressSession,3.1.3,59.984823046462786,
229,yellow,880,0.5,,,,,,0,228,228,228,,,,,,,,,,,,,,,,,,,,,pg,002,2019_Sep_26_1136,StressSession,3.1.3,59.984823046462786,
230,yellow,880,0.5,,,,,,0,229,229,229,,,,,,,,,,,,,,,,,,,,,pg,002,2019_Sep_26_1136,StressSession,3.1.3,59.984823046462786,
231,yellow,880,0.5,,,,,,0,230,230,230,,,,,,,,,,,,,,,,,,,,,pg,002,2019_Sep_26_1136,StressSession,3.1.3,59.984823046462786,
232,yellow,880,0.5,,,,,,0,231,231,231,,,,,,,,,,,,,,,,,,,,,pg,002,2019_Sep_26_1136,StressSession,3.1.3,59.984823046462786,
233,yellow,880,0.5,,,,,,0,232,232,232,,,,,,,,,,,,,,,,,,,,,pg,002,2019_Sep_26_1136,StressSession,3.1.3,59.984823046462786,
234,yellow,880,0.5,,,,,,0,233,233,233,,,,,,,,,,,,,,,,,,,,,pg,002,2019_Sep_26_1136,StressSession,3.1.3,59.984823046462786,
235,yellow,880,0.5,,,,,,0,234,234,234,,,,,,,,,,,,,,,,,,,,,pg,002,2019_Sep_26_1136,StressSession,3.1.3,59.984823046462786,
236,yellow,880,0.5,,,,,,0,235,235,235,,,,,,,,,,,,,,,,,,,,,pg,002,2019_Sep_26_1136,StressSession,3.1.3,59.984823046462786,
237,yellow,880,0.5,,,,,,0,236,236,236,,,,,,,,,,,,,,,,,,,,,pg,002,2019_Sep_26_1136,StressSession,3.1.3,59.984823046462786,
238,yellow,880,0.5,,,,,,0,237,237,237,,,,,,,,,,,,,,,,,,,,,pg,002,2019_Sep_26_1136,StressSession,3.1.3,59.984823046462786,
239,yellow,880,0.5,,,,,,0,238,238,238,,,,,,,,,,,,,,,,,,,,,pg,002,2019_Sep_26_1136,StressSession,3.1.3,59.984823046462786,
240,red,1760,0.5,,,,,,0,239,239,239,,,,,,,,,,,,,,,,,,,,,pg,002,2019_Sep_26_1136,StressSession,3.1.3,59.984823046462786,
241,red,1760,0.5,,,,,,0,240,240,240,,,,,,,,,,,,,,,,,,,,,pg,002,2019_Sep_26_1136,StressSession,3.1.3,59.984823046462786,
242,red,1760,0.5,,,,,,0,241,241,241,,,,,,,,,,,,,,,,,,,,,pg,002,2019_Sep_26_1136,StressSession,3.1.3,59.984823046462786,
243,red,1760,0.5,,,,,,0,242,242,242,,,,,,,,,,,,,,,,,,,,,pg,002,2019_Sep_26_1136,StressSession,3.1.3,59.984823046462786,
244,red,1760,0.5,,,,,,0,243,243,243,,,,,,,,,,,,,,,,,,,,,pg,002,2019_Sep_26_1136,StressSession,3.1.3,59.984823046462786,
245,red,1760,0.5,,,,,,0,244,244,244,,,,,,,,,,,,,,,,,,,,,pg,002,2019_Sep_26_1136,StressSession,3.1.3,59.984823046462786,
246,red,1760,0.5,,,,,,0,245,245,245,,,,,,,,,,,,,,,,,,,,,pg,002,2019_Sep_26_1136,StressSession,3.1.3,59.984823046462786,
247,red,1760,0.5,,,,,,0,246,246,246,,,,,,,,,,,,,,,,,,,,,pg,002,2019_Sep_26_1136,StressSession,3.1.3,59.984823046462786,
248,red,1760,0.5,,,,,,0,247,247,247,,,,,,,,,,,,,,,,,,,,,pg,002,2019_Sep_26_1136,StressSession,3.1.3,59.984823046462786,
249,red,1760,0.5,,,,,,0,248,248,248,,,,,,,,,,,,,,,,,,,,,pg,002,2019_Sep_26_1136,StressSession,3.1.3,59.984823046462786,
250,red,1760,0.5,,,,,,0,249,249,249,,,,,,,,,,,,,,,,,,,,,pg,002,2019_Sep_26_1136,StressSession,3.1.3,59.984823046462786,
251,red,1760,0.5,,,,,,0,250,250,250,,,,,,,,,,,,,,,,,,,,,pg,002,2019_Sep_26_1136,StressSession,3.1.3,59.984823046462786,
252,red,1760,0.5,,,,,,0,251,251,251,,,,,,,,,,,,,,,,,,,,,pg,002,2019_Sep_26_1136,StressSession,3.1.3,59.984823046462786,
253,red,1760,0.5,,,,,,0,252,252,252,,,,,,,,,,,,,,,,,,,,,pg,002,2019_Sep_26_1136,StressSession,3.1.3,59.984823046462786,
254,red,1760,0.5,,,,,,0,253,253,253,,,,,,,,,,,,,,,,,,,,,pg,002,2019_Sep_26_1136,StressSession,3.1.3,59.984823046462786,
255,red,1760,0.5,,,,,,0,254,254,254,,,,,,,,,,,,,,,,,,,,,pg,002,2019_Sep_26_1136,StressSession,3.1.3,59.984823046462786,
256,red,1760,0.5,,,,,,0,255,255,255,,,,,,,,,,,,,,,,,,,,,pg,002,2019_Sep_26_1136,StressSession,3.1.3,59.984823046462786,
257,red,1760,0.5,,,,,,0,256,256,256,,,,,,,,,,,,,,,,,,,,,pg,002,2019_Sep_26_1136,StressSession,3.1.3,59.984823046462786,
258,red,1760,0.5,,,,,,0,257,257,257,,,,,,,,,,,,,,,,,,,,,pg,002,2019_Sep_26_1136,StressSession,3.1.3,59.984823046462786,
259,red,1760,0.5,,,,,,0,258,258,258,,,,,,,,,,,,,,,,,,,,,pg,002,2019_Sep_26_1136,StressSession,3.1.3,59.984823046462786,
260,red,1760,0.5,,,,,,0,259,259,259,,,,,,,,,,,,,,,,,,,,,pg,002,2019_Sep_26_1136,StressSession,3.1.3,59.984823046462786,
261,red,1760,0.5,,,,,,0,260,260,260,,,,,,,,,,,,,,,,,,,,,pg,002,2019_Sep_26_1136,StressSession,3.1.3,59.984823046462786,
262,red,1760,0.5,,,,,,0,261,261,261,,,,,,,,,,,,,,,,,,,,,pg,002,2019_Sep_26_1136,StressSession,3.1.3,59.984823046462786,
263,red,1760,0.5,,,,,,0,262,262,262,,,,,,,,,,,,,,,,,,,,,pg,002,2019_Sep_26_1136,StressSession,3.1.3,59.984823046462786,
264,red,1760,0.5,,,,,,0,263,263,263,,,,,,,,,,,,,,,,,,,,,pg,002,2019_Sep_26_1136,StressSession,3.1.3,59.984823046462786,
265,red,1760,0.5,,,,,,0,264,264,264,,,,,,,,,,,,,,,,,,,,,pg,002,2019_Sep_26_1136,StressSession,3.1.3,59.984823046462786,
266,red,1760,0.5,,,,,,0,265,265,265,,,,,,,,,,,,,,,,,,,,,pg,002,2019_Sep_26_1136,StressSession,3.1.3,59.984823046462786,
267,red,1760,0.5,,,,,,0,266,266,266,,,,,,,,,,,,,,,,,,,,,pg,002,2019_Sep_26_1136,StressSession,3.1.3,59.984823046462786,
268,red,1760,0.5,,,,,,0,267,267,267,,,,,,,,,,,,,,,,,,,,,pg,002,2019_Sep_26_1136,StressSession,3.1.3,59.984823046462786,
269,red,1760,0.5,,,,,,0,268,268,268,,,,,,,,,,,,,,,,,,,,,pg,002,2019_Sep_26_1136,StressSession,3.1.3,59.984823046462786,
270,red,1760,0.5,,,,,,0,269,269,269,,,,,,,,,,,,,,,,,,,,,pg,002,2019_Sep_26_1136,StressSession,3.1.3,59.984823046462786,
271,red,1760,0.5,,,,,,0,270,270,270,,,,,,,,,,,,,,,,,,,,,pg,002,2019_Sep_26_1136,StressSession,3.1.3,59.984823046462786,
272,red,1760,0.5,,,,,,0,271,271,271,,,,,,,,,,,,,,,,,,,,,pg,002,2019_Sep_26_1136,StressSession,3.1.3,59.984823046462786,
273,red,1760,0.5,,,,,,0,272,272,272,,,,,,,,,,,,,,,,,,,,,pg,002,2019_Sep_26_1136,StressSession,3.1.3,59.984823046462786,
274,red,1760,0.5,,,,,,0,273,273,273,,,,,,,,,,,,,,,,,,,,,pg,002,2019_Sep_26_1136,StressSession,3.1.3,59.984823046462786,
275,red,1760,0.5,,,,,,0,274,274,274,,,,,,,,,,,,,,,,,,,,,pg,002,2019_Sep_26_1136,StressSession,3.1.3,59.984823046462786,
276,red,1760,0.5,,,,,,0,275,275,275,,,,,,,,,,,,,,,,,,,,,pg,002,2019_Sep_26_1136,StressSession,3.1.3,59.984823046462786,
277,red,1760,0.5,,,,,,0,276,276,276,,,,,,,,,,,,,,,,,,,,,pg,002,2019_Sep_26_1136,StressSession,3.1.3,59.984823046462786,
278,red,1760,0.5,,,,,,0,277,277,277,,,,,,,,,,,,,,,,,,,,,pg,002,2019_Sep_26_1136,StressSession,3.1.3,59.984823046462786,
279,red,1760,0.5,,,,,,0,278,278,278,,,,,,,,,,,,,,,,,,,,,pg,002,2019_Sep_26_1136,StressSession,3.1.3,59.984823046462786,
280,red,1760,0.5,,,,,,0,279,279,279,,,,,,,,,,,,,,,,,,,,,pg,002,2019_Sep_26_1136,StressSession,3.1.3,59.984823046462786,
281,red,1760,0.5,,,,,,0,280,280,280,,,,,,,,,,,,,,,,,,,,,pg,002,2019_Sep_26_1136,StressSession,3.1.3,59.984823046462786,
282,red,1760,0.5,,,,,,0,281,281,281,,,,,,,,,,,,,,,,,,,,,pg,002,2019_Sep_26_1136,StressSession,3.1.3,59.984823046462786,
283,red,1760,0.5,,,,,,0,282,282,282,,,,,,,,,,,,,,,,,,,,,pg,002,2019_Sep_26_1136,StressSession,3.1.3,59.984823046462786,
284,red,1760,0.5,,,,,,0,283,283,283,,,,,,,,,,,,,,,,,,,,,pg,002,2019_Sep_26_1136,StressSession,3.1.3,59.984823046462786,
285,red,1760,0.5,,,,,,0,284,284,284,,,,,,,,,,,,,,,,,,,,,pg,002,2019_Sep_26_1136,StressSession,3.1.3,59.984823046462786,
286,red,1760,0.5,,,,,,0,285,285,285,,,,,,,,,,,,,,,,,,,,,pg,002,2019_Sep_26_1136,StressSession,3.1.3,59.984823046462786,
287,red,1760,0.5,,,,,,0,286,286,286,,,,,,,,,,,,,,,,,,,,,pg,002,2019_Sep_26_1136,StressSession,3.1.3,59.984823046462786,
288,red,1760,0.5,,,,,,0,287,287,287,,,,,,,,,,,,,,,,,,,,,pg,002,2019_Sep_26_1136,StressSession,3.1.3,59.984823046462786,
289,red,1760,0.5,,,,,,0,288,288,288,,,,,,,,,,,,,,,,,,,,,pg,002,2019_Sep_26_1136,StressSession,3.1.3,59.984823046462786,
290,red,1760,0.5,,,,,,0,289,289,289,,,,,,,,,,,,,,,,,,,,,pg,002,2019_Sep_26_1136,StressSession,3.1.3,59.984823046462786,
291,red,1760,0.5,,,,,,0,290,290,290,,,,,,,,,,,,,,,,,,,,,pg,002,2019_Sep_26_1136,StressSession,3.1.3,59.984823046462786,
292,red,1760,0.5,,,,,,0,291,291,291,,,,,,,,,,,,,,,,,,,,,pg,002,2019_Sep_26_1136,StressSession,3.1.3,59.984823046462786,
293,red,1760,0.5,,,,,,0,292,292,292,,,,,,,,,,,,,,,,,,,,,pg,002,2019_Sep_26_1136,StressSession,3.1.3,59.984823046462786,
294,red,1760,0.5,,,,,,0,293,293,293,,,,,,,,,,,,,,,,,,,,,pg,002,2019_Sep_26_1136,StressSession,3.1.3,59.984823046462786,
295,red,1760,0.5,,,,,,0,294,294,294,,,,,,,,,,,,,,,,,,,,,pg,002,2019_Sep_26_1136,StressSession,3.1.3,59.984823046462786,
296,red,1760,0.5,,,,,,0,295,295,295,,,,,,,,,,,,,,,,,,,,,pg,002,2019_Sep_26_1136,StressSession,3.1.3,59.984823046462786,
297,red,1760,0.5,,,,,,0,296,296,296,,,,,,,,,,,,,,,,,,,,,pg,002,2019_Sep_26_1136,StressSession,3.1.3,59.984823046462786,
298,red,1760,0.5,,,,,,0,297,297,297,,,,,,,,,,,,,,,,,,,,,pg,002,2019_Sep_26_1136,StressSession,3.1.3,59.984823046462786,
299,red,1760,0.5,,,,,,0,298,298,298,,,,,,,,,,,,,,,,,,,,,pg,002,2019_Sep_26_1136,StressSession,3.1.3,59.984823046462786,
300,red,1760,0.5,,,,,,0,299,299,299,,,,,,,,,,,,,,,,,,,,,pg,002,2019_Sep_26_1136,StressSession,3.1.3,59.984823046462786,
,,,,,,,,,,,,,,,,,,,2019-09-26_11:44:50,5,30.117,,,,,,,,,,,,pg,002,2019_Sep_26_1136,StressSession,3.1.3,59.984823046462786,
,,,,,,,,,,,,,,,,,,,,,,6,16.401,,,,,,,,,,pg,002,2019_Sep_26_1136,StressSession,3.1.3,59.984823046462786,
,,,,white,brown,brown,white,left,,,,,0,0,0,209,,,,,,,,2019-09-26_11:47:40,left,1.54570174050059,674.4982001074347,None,,,,,pg,002,2019_Sep_26_1136,StressSession,3.1.3,59.984823046462786,
,,,,white,purple,white,purple,right,,,,,0,1,1,98,,,,,,,,,right,0.8657877905970963,676.5701322367438,None,,,,,pg,002,2019_Sep_26_1136,StressSession,3.1.3,59.984823046462786,
,,,,brown,black,black,brown,left,,,,,0,2,2,191,,,,,,,,,left,1.129619571362582,677.9860168592993,None,,,,,pg,002,2019_Sep_26_1136,StressSession,3.1.3,59.984823046462786,
,,,,brown,cyan,cyan,brown,left,,,,,0,3,3,196,,,,,,,,,left,0.9821286476249043,679.6455894845487,None,,,,,pg,002,2019_Sep_26_1136,StressSession,3.1.3,59.984823046462786,
,,,,purple,yellow,purple,yellow,right,,,,,0,4,4,78,,,,,,,,,right,0.9293444568129416,681.1782057906323,None,,,,,pg,002,2019_Sep_26_1136,StressSession,3.1.3,59.984823046462786,
,,,,cyan,blue,cyan,blue,right,,,,,0,5,5,47,,,,,,,,,right,0.7465315214799375,682.6414712996391,None,,,,,pg,002,2019_Sep_26_1136,StressSession,3.1.3,59.984823046462786,
,,,,black,cyan,cyan,black,left,,,,,0,6,6,214,,,,,,,,,left,0.7131329223966532,683.9143185432242,None,,,,,pg,002,2019_Sep_26_1136,StressSession,3.1.3,59.984823046462786,
,,,,black,orange,orange,black,left,,,,,0,7,7,216,,,,,,,,,left,1.20597580545018,685.1574813194745,None,,,,,pg,002,2019_Sep_26_1136,StressSession,3.1.3,59.984823046462786,
,,,,blue,white,white,blue,left,,,,,0,8,8,127,,,,,,,,,left,1.4493578882738802,686.8983420167076,None,,,,,pg,002,2019_Sep_26_1136,StressSession,3.1.3,59.984823046462786,
,,,,red,blue,blue,red,left,,,,,0,9,9,110,,,,,,,,,left,0.8851294356777544,688.8783590919004,None,,,,,pg,002,2019_Sep_26_1136,StressSession,3.1.3,59.984823046462786,
,,,,cyan,black,cyan,black,right,,,,,0,10,10,45,,,,,,,,,right,0.7072811915600141,690.296157740306,None,,,,,pg,002,2019_Sep_26_1136,StressSession,3.1.3,59.984823046462786,
,,,,white,black,white,black,right,,,,,0,11,11,90,,,,,,,,,right,0.6826164554167917,691.5370092642095,None,,,,,pg,002,2019_Sep_26_1136,StressSession,3.1.3,59.984823046462786,
,,,,green,white,green,white,right,,,,,0,12,12,26,,,,,,,,,right,0.7088508975566583,692.7669470861026,None,,,,,pg,002,2019_Sep_26_1136,StressSession,3.1.3,59.984823046462786,
,,,,cyan,brown,cyan,brown,right,,,,,0,13,13,43,,,,,,,,,right,0.8581884338395867,694.0092902360363,None,,,,,pg,002,2019_Sep_26_1136,StressSession,3.1.3,59.984823046462786,
,,,,purple,magenta,magenta,purple,left,,,,,0,14,14,186,,,,,,,,,right,0.8043269101540318,695.4152604094891,None,,,,,pg,002,2019_Sep_26_1136,StressSession,3.1.3,59.984823046462786,
,,,,brown,red,brown,red,right,,,,,0,15,15,82,,,,,,,,,right,1.4781233160006195,696.7577438900291,None,,,,,pg,002,2019_Sep_26_1136,StressSession,3.1.3,59.984823046462786,
,,,,orange,green,green,orange,left,,,,,0,16,16,176,,,,,,,,,left,1.0352464916277313,698.7764250553921,None,,,,,pg,002,2019_Sep_26_1136,StressSession,3.1.3,59.984823046462786,
,,,,red,purple,red,purple,right,,,,,0,17,17,6,,,,,,,,,right,0.7069419917047526,700.3527913161422,None,,,,,pg,002,2019_Sep_26_1136,StressSession,3.1.3,59.984823046462786,
,,,,red,green,red,green,right,,,,,0,18,18,1,,,,,,,,,right,0.6901577855323922,701.5932848668651,None,,,,,pg,002,2019_Sep_26_1136,StressSession,3.1.3,59.984823046462786,
,,,,orange,yellow,yellow,orange,left,,,,,0,19,19,179,,,,,,,,,left,1.0601467476708422,702.8232636487407,None,,,,,pg,002,2019_Sep_26_1136,StressSession,3.1.3,59.984823046462786,
,,,,cyan,brown,brown,cyan,left,,,,,0,20,20,153,,,,,,,,,left,0.7870452108609243,704.4169231287794,None,,,,,pg,002,2019_Sep_26_1136,StressSession,3.1.3,59.984823046462786,
,,,,white,green,green,white,left,,,,,0,21,21,203,,,,,,,,,left,0.8765700793301221,705.7352013929806,None,,,,,pg,002,2019_Sep_26_1136,StressSession,3.1.3,59.984823046462786,
,,,,red,brown,red,brown,right,,,,,0,22,22,7,,,,,,,,,right,1.290685742641017,707.1451856447209,None,,,,,pg,002,2019_Sep_26_1136,StressSession,3.1.3,59.984823046462786,
,,,,brown,yellow,brown,yellow,right,,,,,0,23,23,87,,,,,,,,,right,0.7679570056716329,708.9641139353114,None,,,,,pg,002,2019_Sep_26_1136,StressSession,3.1.3,59.984823046462786,
,,,,green,purple,green,purple,right,,,,,0,24,24,24,,,,,,,,,right,0.914337743215583,710.2651297002114,None,,,,,pg,002,2019_Sep_26_1136,StressSession,3.1.3,59.984823046462786,
,,,,blue,green,green,blue,left,,,,,0,25,25,120,,,,,,,,,left,0.8119889868848986,711.7036242331203,None,,,,,pg,002,2019_Sep_26_1136,StressSession,3.1.3,59.984823046462786,
,,,,white,orange,white,orange,right,,,,,0,26,26,97,,,,,,,,,right,1.0208447911063558,713.0468249400212,None,,,,,pg,002,2019_Sep_26_1136,StressSession,3.1.3,59.984823046462786,
,,,,blue,yellow,yellow,blue,left,,,,,0,27,27,123,,,,,,,,,left,0.6875005066663107,714.6120688588505,None,,,,,pg,002,2019_Sep_26_1136,StressSession,3.1.3,59.984823046462786,
,,,,yellow,white,yellow,white,right,,,,,0,28,28,53,,,,,,,,,right,0.7802838270786197,715.8394415618384,None,,,,,pg,002,2019_Sep_26_1136,StressSession,3.1.3,59.984823046462786,
,,,,brown,yellow,yellow,brown,left,,,,,0,29,29,197,,,,,,,,,left,0.6460933776670572,717.1493793495981,None,,,,,pg,002,2019_Sep_26_1136,StressSession,3.1.3,59.984823046462786,
,,,,magenta,green,magenta,green,right,,,,,0,30,30,39,,,,,,,,,right,0.8709700817194062,718.3327426846965,None,,,,,pg,002,2019_Sep_26_1136,StressSession,3.1.3,59.984823046462786,
,,,,magenta,blue,blue,magenta,left,,,,,0,31,31,148,,,,,,,,,left,0.7486593072389951,719.7348272064739,None,,,,,pg,002,2019_Sep_26_1136,StressSession,3.1.3,59.984823046462786,
,,,,white,blue,blue,white,left,,,,,0,32,32,202,,,,,,,,,left,1.0375871839628417,721.0143731138676,None,,,,,pg,002,2019_Sep_26_1136,StressSession,3.1.3,59.984823046462786,
,,,,white,yellow,yellow,white,left,,,,,0,33,33,206,,,,,,,,,left,0.7557829308661894,722.5760722875427,None,,,,,pg,002,2019_Sep_26_1136,StressSession,3.1.3,59.984823046462786,
,,,,yellow,red,yellow,red,right,,,,,0,34,34,55,,,,,,,,,right,0.7468993079896791,723.8645999511039,None,,,,,pg,002,2019_Sep_26_1136,StressSession,3.1.3,59.984823046462786,
,,,,blue,magenta,blue,magenta,right,,,,,0,35,35,11,,,,,,,,,right,0.9294831234205958,725.1539869209657,None,,,,,pg,002,2019_Sep_26_1136,StressSession,3.1.3,59.984823046462786,
,,,,green,blue,green,blue,right,,,,,0,36,36,29,,,,,,,,,right,0.8026701641938416,726.6172908299561,None,,,,,pg,002,2019_Sep_26_1136,StressSession,3.1.3,59.984823046462786,
,,,,white,cyan,cyan,white,left,,,,,0,37,37,205,,,,,,,,,left,0.903157374652892,727.94872663521,None,,,,,pg,002,2019_Sep_26_1136,StressSession,3.1.3,59.984823046462786,
,,,,green,black,green,black,right,,,,,0,38,38,27,,,,,,,,,right,0.6936086640603207,729.3822436769094,None,,,,,pg,002,2019_Sep_26_1136,StressSession,3.1.3,59.984823046462786,
,,,,black,brown,black,brown,right,,,,,0,39,39,108,,,,,,,,,right,0.799404458920435,730.6125386186502,None,,,,,pg,002,2019_Sep_26_1136,StressSession,3.1.3,59.984823046462786,
,,,,black,purple,purple,black,left,,,,,0,40,40,217,,,,,,,,,left,0.7225298250541528,731.9374263733646,None,,,,,pg,002,2019_Sep_26_1136,StressSession,3.1.3,59.984823046462786,
,,,,blue,black,black,blue,left,,,,,0,41,41,128,,,,,,,,,left,0.7611981818886306,733.1945437036613,None,,,,,pg,002,2019_Sep_26_1136,StressSession,3.1.3,59.984823046462786,
,,,,orange,brown,brown,orange,left,,,,,0,42,42,171,,,,,,,,,left,0.8019128311839268,734.497744427629,None,,,,,pg,002,2019_Sep_26_1136,StressSession,3.1.3,59.984823046462786,
,,,,white,cyan,white,cyan,right,,,,,0,43,43,95,,,,,,,,,right,0.8243755416001477,735.8430767602874,None,,,,,pg,002,2019_Sep_26_1136,StressSession,3.1.3,59.984823046462786,
,,,,cyan,green,green,cyan,left,,,,,0,44,44,158,,,,,,,,,left,0.7833187057840405,737.2046595393451,None,,,,,pg,002,2019_Sep_26_1136,StressSession,3.1.3,59.984823046462786,
,,,,purple,blue,purple,blue,right,,,,,0,45,45,74,,,,,,,,,right,0.717679480456809,738.5261847354948,None,,,,,pg,002,2019_Sep_26_1136,StressSession,3.1.3,59.984823046462786,
,,,,brown,green,brown,green,right,,,,,0,46,46,84,,,,,,,,,right,0.7678247390613251,739.7720640972527,None,,,,,pg,002,2019_Sep_26_1136,StressSession,3.1.3,59.984823046462786,
,,,,yellow,cyan,cyan,yellow,left,,,,,0,47,47,169,,,,,,,,,left,0.7300276351879802,741.0733904753536,None,,,,,pg,002,2019_Sep_26_1136,StressSession,3.1.3,59.984823046462786,
,,,,purple,white,white,purple,left,,,,,0,48,48,181,,,,,,,,,left,0.6639472367160124,742.3394904151507,None,,,,,pg,002,2019_Sep_26_1136,StressSession,3.1.3,59.984823046462786,
,,,,brown,green,green,brown,left,,,,,0,49,49,194,,,,,,,,,left,0.8759671995876488,743.5354510782074,None,,,,,pg,002,2019_Sep_26_1136,StressSession,3.1.3,59.984823046462786,
,,,,purple,blue,blue,purple,left,,,,,0,50,50,184,,,,,,,,,left,0.7128449225192526,744.9548736192539,None,,,,,pg,002,2019_Sep_26_1136,StressSession,3.1.3,59.984823046462786,
,,,,black,blue,black,blue,right,,,,,0,51,51,101,,,,,,,,,right,1.0285000411736291,746.1992570883169,None,,,,,pg,002,2019_Sep_26_1136,StressSession,3.1.3,59.984823046462786,
,,,,yellow,cyan,yellow,cyan,right,,,,,0,52,52,59,,,,,,,,,right,1.1631231304008907,747.7683623388323,None,,,,,pg,002,2019_Sep_26_1136,StressSession,3.1.3,59.984823046462786,
,,,,black,cyan,black,cyan,right,,,,,0,53,53,104,,,,,,,,,right,0.7957103804969847,749.4559148988099,None,,,,,pg,002,2019_Sep_26_1136,StressSession,3.1.3,59.984823046462786,
,,,,green,cyan,cyan,green,left,,,,,0,54,54,131,,,,,,,,,left,0.7437018693540267,750.7797449473089,None,,,,,pg,002,2019_Sep_26_1136,StressSession,3.1.3,59.984823046462786,
,,,,purple,red,purple,red,right,,,,,0,55,55,73,,,,,,,,,right,0.796119126989197,752.0636266395193,None,,,,,pg,002,2019_Sep_26_1136,StressSession,3.1.3,59.984823046462786,
,,,,magenta,cyan,cyan,magenta,left,,,,,0,56,56,140,,,,,,,,,left,0.8046464833510072,753.398846976492,None,,,,,pg,002,2019_Sep_26_1136,StressSession,3.1.3,59.984823046462786,
,,,,purple,black,purple,black,right,,,,,0,57,57,72,,,,,,,,,right,0.7308643281648983,754.7449477354892,None,,,,,pg,002,2019_Sep_26_1136,StressSession,3.1.3,59.984823046462786,
,,,,white,orange,orange,white,left,,,,,0,58,58,207,,,,,,,,,left,0.760631995463882,756.0112396752045,None,,,,,pg,002,2019_Sep_26_1136,StressSession,3.1.3,59.984823046462786,
,,,,magenta,purple,magenta,purple,right,,,,,0,59,59,33,,,,,,,,,right,2.504841171267799,757.3151030122228,None,,,,,pg,002,2019_Sep_26_1136,StressSession,3.1.3,59.984823046462786,
,,,,red,black,red,black,right,,,,,0,60,60,9,,,,,,,,,left,1.0992328109937262,760.352696596183,None,,,,,pg,002,2019_Sep_26_1136,StressSession,3.1.3,59.984823046462786,
,,,,green,red,green,red,right,,,,,0,61,61,28,,,,,,,,,right,1.1917827448396565,761.9877512585597,None,,,,,pg,002,2019_Sep_26_1136,StressSession,3.1.3,59.984823046462786,
,,,,magenta,yellow,yellow,magenta,left,,,,,0,62,62,141,,,,,,,,,left,0.6464423908510071,763.7254793704622,None,,,,,pg,002,2019_Sep_26_1136,StressSession,3.1.3,59.984823046462786,
,,,,brown,orange,brown,orange,right,,,,,0,63,63,88,,,,,,,,,right,0.8132578930099044,764.9025715615696,None,,,,,pg,002,2019_Sep_26_1136,StressSession,3.1.3,59.984823046462786,
,,,,black,blue,blue,black,left,,,,,0,64,64,211,,,,,,,,,left,0.8824538101530379,766.2494812802213,None,,,,,pg,002,2019_Sep_26_1136,StressSession,3.1.3,59.984823046462786,
,,,,red,white,red,white,right,,,,,0,65,65,8,,,,,,,,,right,0.9557790055346231,767.6639864900324,None,,,,,pg,002,2019_Sep_26_1136,StressSession,3.1.3,59.984823046462786,
,,,,orange,black,orange,black,right,,,,,0,66,66,63,,,,,,,,,right,0.7089106308644659,769.1506986023685,None,,,,,pg,002,2019_Sep_26_1136,StressSession,3.1.3,59.984823046462786,
,,,,purple,brown,purple,brown,right,,,,,0,67,67,70,,,,,,,,,right,0.9320691489838282,770.3998091094147,None,,,,,pg,002,2019_Sep_26_1136,StressSession,3.1.3,59.984823046462786,
,,,,green,brown,green,brown,right,,,,,0,68,68,25,,,,,,,,,right,0.8362270565430663,771.8556224616011,None,,,,,pg,002,2019_Sep_26_1136,StressSession,3.1.3,59.984823046462786,
,,,,orange,black,black,orange,left,,,,,0,69,69,173,,,,,,,,,left,1.229107102247326,773.2307463548816,None,,,,,pg,002,2019_Sep_26_1136,StressSession,3.1.3,59.984823046462786,
,,,,magenta,blue,magenta,blue,right,,,,,0,70,70,38,,,,,,,,,right,1.2132709490042544,774.9986056539285,None,,,,,pg,002,2019_Sep_26_1136,StressSession,3.1.3,59.984823046462786,
,,,,brown,purple,purple,brown,left,,,,,0,71,71,199,,,,,,,,,left,0.8753907731666004,776.7441302425043,None,,,,,pg,002,2019_Sep_26_1136,StressSession,3.1.3,59.984823046462786,
,,,,white,magenta,white,magenta,right,,,,,0,72,72,94,,,,,,,,,right,0.9156966759692295,778.1603318782584,None,,,,,pg,002,2019_Sep_26_1136,StressSession,3.1.3,59.984823046462786,
,,,,red,green,green,red,left,,,,,0,73,73,111,,,,,,,,,left,1.1847128811891707,779.6032351559531,None,,,,,pg,002,2019_Sep_26_1136,StressSession,3.1.3,59.984823046462786,
,,,,orange,red,orange,red,right,,,,,0,74,74,64,,,,,,,,,right,0.8831625031839394,781.3202345300335,None,,,,,pg,002,2019_Sep_26_1136,StressSession,3.1.3,59.984823046462786,
,,,,yellow,magenta,yellow,magenta,right,,,,,0,75,75,58,,,,,,,,,right,1.1242038936729841,782.7433084828551,None,,,,,pg,002,2019_Sep_26_1136,StressSession,3.1.3,59.984823046462786,
,,,,brown,red,red,brown,left,,,,,0,76,76,192,,,,,,,,,left,1.4735771846071657,784.4019889484846,None,,,,,pg,002,2019_Sep_26_1136,StressSession,3.1.3,59.984823046462786,
,,,,yellow,blue,blue,yellow,left,,,,,0,77,77,166,,,,,,,,,left,0.8487706245246045,786.4186101680596,None,,,,,pg,002,2019_Sep_26_1136,StressSession,3.1.3,59.984823046462786,
,,,,blue,brown,blue,brown,right,,,,,0,78,78,16,,,,,,,,,right,0.9161011557966958,787.7913054757098,None,,,,,pg,002,2019_Sep_26_1136,StressSession,3.1.3,59.984823046462786,
,,,,purple,orange,orange,purple,left,,,,,0,79,79,189,,,,,,,,,left,1.0000447999809694,789.2516564259602,None,,,,,pg,002,2019_Sep_26_1136,StressSession,3.1.3,59.984823046462786,
,,,,orange,white,orange,white,right,,,,,0,80,80,62,,,,,,,,,right,0.7626151412841864,790.7768039352302,None,,,,,pg,002,2019_Sep_26_1136,StressSession,3.1.3,59.984823046462786,
,,,,magenta,black,magenta,black,right,,,,,0,81,81,36,,,,,,,,,right,0.6951971433823019,792.084194524077,None,,,,,pg,002,2019_Sep_26_1136,StressSession,3.1.3,59.984823046462786,
,,,,orange,magenta,magenta,orange,left,,,,,0,82,82,177,,,,,,,,,left,1.0605281875082255,793.3110159739665,None,,,,,pg,002,2019_Sep_26_1136,StressSession,3.1.3,59.984823046462786,
,,,,yellow,magenta,magenta,yellow,left,,,,,0,83,83,168,,,,,,,,,left,0.8081357618621041,794.907519186125,None,,,,,pg,002,2019_Sep_26_1136,StressSession,3.1.3,59.984823046462786,
,,,,green,blue,blue,green,left,,,,,0,84,84,139,,,,,,,,,left,0.7523691723226875,796.243554029417,None,,,,,pg,002,2019_Sep_26_1136,StressSession,3.1.3,59.984823046462786,
,,,,blue,cyan,cyan,blue,left,,,,,0,85,85,122,,,,,,,,,left,0.830516552312929,797.5252328425674,None,,,,,pg,002,2019_Sep_26_1136,StressSession,3.1.3,59.984823046462786,
,,,,orange,purple,orange,purple,right,,,,,0,86,86,60,,,,,,,,,right,0.9079778525961046,798.8956134845382,None,,,,,pg,002,2019_Sep_26_1136,StressSession,3.1.3,59.984823046462786,
,,,,purple,brown,brown,purple,left,,,,,0,87,87,180,,,,,,,,,left,1.099554517523302,800.3361961232229,None,,,,,pg,002,2019_Sep_26_1136,StressSession,3.1.3,59.984823046462786,
,,,,black,yellow,black,yellow,right,,,,,0,88,88,105,,,,,,,,,right,0.7115090297561437,801.9718779853322,None,,,,,pg,002,2019_Sep_26_1136,StressSession,3.1.3,59.984823046462786,
,,,,cyan,purple,purple,cyan,left,,,,,0,89,89,152,,,,,,,,,left,0.895755137811193,803.2201023060895,None,,,,,pg,002,2019_Sep_26_1136,StressSession,3.1.3,59.984823046462786,
,,,,red,yellow,red,yellow,right,,,,,0,90,90,4,,,,,,,,,right,0.8090129881543362,804.6506851623742,None,,,,,pg,002,2019_Sep_26_1136,StressSession,3.1.3,59.984823046462786,
,,,,magenta,white,magenta,white,right,,,,,0,91,91,35,,,,,,,,,right,0.7230648648255737,806.0089237295258,None,,,,,pg,002,2019_Sep_26_1136,StressSession,3.1.3,59.984823046462786,
,,,,orange,blue,orange,blue,right,,,,,0,92,92,65,,,,,,,,,right,0.6618352376167422,807.2695951916396,None,,,,,pg,002,2019_Sep_26_1136,StressSession,3.1.3,59.984823046462786,
,,,,cyan,white,white,cyan,left,,,,,0,93,93,154,,,,,,,,,left,0.7622674080994329,808.4656185746696,None,,,,,pg,002,2019_Sep_26_1136,StressSession,3.1.3,59.984823046462786,
,,,,yellow,brown,yellow,brown,right,,,,,0,94,94,52,,,,,,,,,right,0.7070789516465084,809.7685274587618,None,,,,,pg,002,2019_Sep_26_1136,StressSession,3.1.3,59.984823046462786,
,,,,orange,green,orange,green,right,,,,,0,95,95,66,,,,,,,,,right,0.73794656514292,811.0174416992247,None,,,,,pg,002,2019_Sep_26_1136,StressSession,3.1.3,59.984823046462786,
,,,,yellow,orange,yellow,orange,right,,,,,0,96,96,50,,,,,,,,,left,0.7920875553759288,812.2997775787615,None,,,,,pg,002,2019_Sep_26_1136,StressSession,3.1.3,59.984823046462786,
,,,,red,blue,red,blue,right,,,,,0,97,97,0,,,,,,,,,right,0.9068766263994803,813.624705866792,None,,,,,pg,002,2019_Sep_26_1136,StressSession,3.1.3,59.984823046462786,
,,,,brown,white,brown,white,right,,,,,0,98,98,80,,,,,,,,,right,0.9257007250344031,815.0619762935569,None,,,,,pg,002,2019_Sep_26_1136,StressSession,3.1.3,59.984823046462786,
,,,,red,black,black,red,left,,,,,0,99,99,119,,,,,,,,,left,0.7445560556557211,816.5228725235745,None,,,,,pg,002,2019_Sep_26_1136,StressSession,3.1.3,59.984823046462786,
,,,,red,brown,brown,red,left,,,,,0,100,100,117,,,,,,,,,left,0.7822686795657319,817.7973244598081,None,,,,,pg,002,2019_Sep_26_1136,StressSession,3.1.3,59.984823046462786,
,,,,cyan,magenta,cyan,magenta,right,,,,,0,101,101,49,,,,,,,,,right,1.0147942336880078,819.1086463536442,None,,,,,pg,002,2019_Sep_26_1136,StressSession,3.1.3,59.984823046462786,
,,,,green,magenta,green,magenta,right,,,,,0,102,102,20,,,,,,,,,right,0.7583292764461476,820.65327332127,None,,,,,pg,002,2019_Sep_26_1136,StressSession,3.1.3,59.984823046462786,
,,,,magenta,cyan,magenta,cyan,right,,,,,0,103,103,30,,,,,,,,,right,0.9234445126635364,821.9599279104307,None,,,,,pg,002,2019_Sep_26_1136,StressSession,3.1.3,59.984823046462786,
,,,,blue,black,blue,black,right,,,,,0,104,104,18,,,,,,,,,right,0.7761161488569996,823.4192467544547,None,,,,,pg,002,2019_Sep_26_1136,StressSession,3.1.3,59.984823046462786,
,,,,yellow,green,green,yellow,left,,,,,0,105,105,167,,,,,,,,,left,0.8880730077557928,824.7393763245329,None,,,,,pg,002,2019_Sep_26_1136,StressSession,3.1.3,59.984823046462786,
,,,,purple,white,purple,white,right,,,,,0,106,106,71,,,,,,,,,right,0.6461590843055092,826.1738601924865,None,,,,,pg,002,2019_Sep_26_1136,StressSession,3.1.3,59.984823046462786,
,,,,black,yellow,yellow,black,left,,,,,0,107,107,215,,,,,,,,,left,0.7656483133237089,827.350306410536,None,,,,,pg,002,2019_Sep_26_1136,StressSession,3.1.3,59.984823046462786,
,,,,green,cyan,green,cyan,right,,,,,0,108,108,21,,,,,,,,,right,0.8258701542954441,828.6495724161825,None,,,,,pg,002,2019_Sep_26_1136,StressSession,3.1.3,59.984823046462786,
,,,,white,purple,purple,white,left,,,,,0,109,109,208,,,,,,,,,left,0.8435994267310889,830.0159406865321,None,,,,,pg,002,2019_Sep_26_1136,StressSession,3.1.3,59.984823046462786,
,,,,magenta,red,magenta,red,right,,,,,0,110,110,37,,,,,,,,,right,0.7547636246340517,831.4006462290574,None,,,,,pg,002,2019_Sep_26_1136,StressSession,3.1.3,59.984823046462786,
,,,,brown,purple,brown,purple,right,,,,,0,111,111,89,,,,,,,,,right,1.1071585676127143,832.6965040228249,None,,,,,pg,002,2019_Sep_26_1136,StressSession,3.1.3,59.984823046462786,
,,,,yellow,green,yellow,green,right,,,,,0,112,112,57,,,,,,,,,right,0.74403424254524,834.347776278282,None,,,,,pg,002,2019_Sep_26_1136,StressSession,3.1.3,59.984823046462786,
,,,,purple,black,black,purple,left,,,,,0,113,113,182,,,,,,,,,left,0.7029667400674953,835.6285420251554,None,,,,,pg,002,2019_Sep_26_1136,StressSession,3.1.3,59.984823046462786,
,,,,red,yellow,yellow,red,left,,,,,0,114,114,114,,,,,,,,,left,0.7550012778660857,836.8569237943791,None,,,,,pg,002,2019_Sep_26_1136,StressSession,3.1.3,59.984823046462786,
,,,,yellow,black,black,yellow,left,,,,,0,115,115,164,,,,,,,,,left,0.7318951543916228,838.1439845785665,None,,,,,pg,002,2019_Sep_26_1136,StressSession,3.1.3,59.984823046462786,
,,,,magenta,red,red,magenta,left,,,,,0,116,116,147,,,,,,,,,left,0.7543779181319223,839.409115985444,None,,,,,pg,002,2019_Sep_26_1136,StressSession,3.1.3,59.984823046462786,
,,,,white,green,white,green,right,,,,,0,117,117,93,,,,,,,,,right,0.9613081765087372,840.7064956985621,None,,,,,pg,002,2019_Sep_26_1136,StressSession,3.1.3,59.984823046462786,
,,,,purple,orange,purple,orange,right,,,,,0,118,118,79,,,,,,,,,right,0.8189624239093973,842.2086424709794,None,,,,,pg,002,2019_Sep_26_1136,StressSession,3.1.3,59.984823046462786,
,,,,red,white,white,red,left,,,,,0,119,119,118,,,,,,,,,left,0.7386561115067707,843.5688949039384,None,,,,,pg,002,2019_Sep_26_1136,StressSession,3.1.3,59.984823046462786,
,,,,magenta,brown,brown,magenta,left,,,,,0,120,120,144,,,,,,,,,left,0.8596514732153082,844.8402658814864,None,,,,,pg,002,2019_Sep_26_1136,StressSession,3.1.3,59.984823046462786,
,,,,red,magenta,red,magenta,right,,,,,0,121,121,2,,,,,,,,,right,0.8015510180052843,846.2258934502854,None,,,,,pg,002,2019_Sep_26_1136,StressSession,3.1.3,59.984823046462786,
,,,,cyan,magenta,magenta,cyan,left,,,,,0,122,122,159,,,,,,,,,left,0.7281136093383793,847.571660982758,None,,,,,pg,002,2019_Sep_26_1136,StressSession,3.1.3,59.984823046462786,
,,,,purple,green,green,purple,left,,,,,0,123,123,185,,,,,,,,,left,0.7112794831873543,848.8365790563928,None,,,,,pg,002,2019_Sep_26_1136,StressSession,3.1.3,59.984823046462786,
,,,,yellow,white,white,yellow,left,,,,,0,124,124,163,,,,,,,,,left,0.8372467894409965,850.0861072699274,None,,,,,pg,002,2019_Sep_26_1136,StressSession,3.1.3,59.984823046462786,
,,,,red,cyan,red,cyan,right,,,,,0,125,125,3,,,,,,,,,right,0.7919151821160995,851.4594707372923,None,,,,,pg,002,2019_Sep_26_1136,StressSession,3.1.3,59.984823046462786,
,,,,cyan,purple,cyan,purple,right,,,,,0,126,126,42,,,,,,,,,right,0.7844702786260314,852.7794671874274,None,,,,,pg,002,2019_Sep_26_1136,StressSession,3.1.3,59.984823046462786,
,,,,green,red,red,green,left,,,,,0,127,127,138,,,,,,,,,left,0.7095041239449529,854.1019255031786,None,,,,,pg,002,2019_Sep_26_1136,StressSession,3.1.3,59.984823046462786,
,,,,black,white,black,white,right,,,,,0,128,128,109,,,,,,,,,right,0.7158179345842655,855.3441543064944,None,,,,,pg,002,2019_Sep_26_1136,StressSession,3.1.3,59.984823046462786,
,,,,black,green,black,green,right,,,,,0,129,129,102,,,,,,,,,right,0.9420753313811474,856.5814999118936,None,,,,,pg,002,2019_Sep_26_1136,StressSession,3.1.3,59.984823046462786,
,,,,white,black,black,white,left,,,,,0,130,130,200,,,,,,,,,left,0.6574316128294413,858.0505057917842,None,,,,,pg,002,2019_Sep_26_1136,StressSession,3.1.3,59.984823046462786,
,,,,brown,magenta,magenta,brown,left,,,,,0,131,131,195,,,,,,,,,left,0.8874010080421613,859.2439913625637,None,,,,,pg,002,2019_Sep_26_1136,StressSession,3.1.3,59.984823046462786,
,,,,black,magenta,magenta,black,left,,,,,0,132,132,213,,,,,,,,,left,0.650648042390003,860.6647344363798,None,,,,,pg,002,2019_Sep_26_1136,StressSession,3.1.3,59.984823046462786,
,,,,white,yellow,white,yellow,right,,,,,0,133,133,96,,,,,,,,,right,0.7556852242410059,861.8557082215646,None,,,,,pg,002,2019_Sep_26_1136,StressSession,3.1.3,59.984823046462786,
,,,,blue,cyan,blue,cyan,right,,,,,0,134,134,12,,,,,,,,,right,0.7153733481072777,863.1525430815816,None,,,,,pg,002,2019_Sep_26_1136,StressSession,3.1.3,59.984823046462786,
,,,,cyan,blue,blue,cyan,left,,,,,0,135,135,157,,,,,,,,,left,0.8837811695866549,864.3915752995947,None,,,,,pg,002,2019_Sep_26_1136,StressSession,3.1.3,59.984823046462786,
,,,,blue,white,blue,white,right,,,,,0,136,136,17,,,,,,,,,right,0.6733786993586364,865.810180774323,None,,,,,pg,002,2019_Sep_26_1136,StressSession,3.1.3,59.984823046462786,
,,,,orange,white,white,orange,left,,,,,0,137,137,172,,,,,,,,,left,0.8230349555051362,867.0203464446524,None,,,,,pg,002,2019_Sep_26_1136,StressSession,3.1.3,59.984823046462786,
,,,,cyan,orange,orange,cyan,left,,,,,0,138,138,151,,,,,,,,,left,0.8921459660177788,868.3834366364006,None,,,,,pg,002,2019_Sep_26_1136,StressSession,3.1.3,59.984823046462786,
,,,,blue,red,blue,red,right,,,,,0,139,139,19,,,,,,,,,right,0.9354927208564732,869.8124758133438,None,,,,,pg,002,2019_Sep_26_1136,StressSession,3.1.3,59.984823046462786,
,,,,orange,yellow,orange,yellow,right,,,,,0,140,140,69,,,,,,,,,right,1.0031214920018101,871.2886193968559,None,,,,,pg,002,2019_Sep_26_1136,StressSession,3.1.3,59.984823046462786,
,,,,magenta,black,black,magenta,left,,,,,0,141,141,146,,,,,,,,,left,0.6962744762563489,872.8751194132826,None,,,,,pg,002,2019_Sep_26_1136,StressSession,3.1.3,59.984823046462786,
,,,,magenta,orange,orange,magenta,left,,,,,0,142,142,142,,,,,,,,,left,0.8369732962246417,874.1026269428792,None,,,,,pg,002,2019_Sep_26_1136,StressSession,3.1.3,59.984823046462786,
,,,,cyan,green,cyan,green,right,,,,,0,143,143,48,,,,,,,,,right,0.8229560222052896,875.4766261433062,None,,,,,pg,002,2019_Sep_26_1136,StressSession,3.1.3,59.984823046462786,
,,,,brown,orange,orange,brown,left,,,,,0,144,144,198,,,,,,,,,left,0.9435882907355335,876.8442957464338,None,,,,,pg,002,2019_Sep_26_1136,StressSession,3.1.3,59.984823046462786,
,,,,white,red,white,red,right,,,,,0,145,145,91,,,,,,,,,right,0.8396130817650374,878.3239857817659,None,,,,,pg,002,2019_Sep_26_1136,StressSession,3.1.3,59.984823046462786,
,,,,blue,brown,brown,blue,left,,,,,0,146,146,126,,,,,,,,,left,0.8818385570821192,879.6899593856172,None,,,,,pg,002,2019_Sep_26_1136,StressSession,3.1.3,59.984823046462786,
,,,,purple,yellow,yellow,purple,left,,,,,0,147,147,188,,,,,,,,,left,0.6794586967644136,881.108431313736,None,,,,,pg,002,2019_Sep_26_1136,StressSession,3.1.3,59.984823046462786,
,,,,white,magenta,magenta,white,left,,,,,0,148,148,204,,,,,,,,,left,0.7509330129350928,882.3247205014525,None,,,,,pg,002,2019_Sep_26_1136,StressSession,3.1.3,59.984823046462786,
,,,,cyan,white,cyan,white,right,,,,,0,149,149,44,,,,,,,,,right,0.7599164757689323,883.595896919084,None,,,,,pg,002,2019_Sep_26_1136,StressSession,3.1.3,59.984823046462786,
,,,,black,white,white,black,left,,,,,0,150,150,219,,,,,,,,,left,0.7655992466775388,884.8863369018297,None,,,,,pg,002,2019_Sep_26_1136,StressSession,3.1.3,59.984823046462786,
,,,,orange,blue,blue,orange,left,,,,,0,151,151,175,,,,,,,,,left,0.711240656537484,886.1886463195108,None,,,,,pg,002,2019_Sep_26_1136,StressSession,3.1.3,59.984823046462786,
,,,,cyan,orange,cyan,orange,right,,,,,0,152,152,41,,,,,,,,,right,0.8574763274768884,887.4261510715089,None,,,,,pg,002,2019_Sep_26_1136,StressSession,3.1.3,59.984823046462786,
,,,,yellow,purple,purple,yellow,left,,,,,0,153,153,161,,,,,,,,,left,0.8879151411560997,888.8197150635881,None,,,,,pg,002,2019_Sep_26_1136,StressSession,3.1.3,59.984823046462786,
,,,,brown,white,white,brown,left,,,,,0,154,154,190,,,,,,,,,left,0.6880846130839018,890.2513142394394,None,,,,,pg,002,2019_Sep_26_1136,StressSession,3.1.3,59.984823046462786,
,,,,blue,purple,blue,purple,right,,,,,0,155,155,15,,,,,,,,,right,0.6731235528004618,891.482293980888,None,,,,,pg,002,2019_Sep_26_1136,StressSession,3.1.3,59.984823046462786,
,,,,green,yellow,yellow,green,left,,,,,0,156,156,132,,,,,,,,,left,0.6501198292821755,892.6979627955359,None,,,,,pg,002,2019_Sep_26_1136,StressSession,3.1.3,59.984823046462786,
,,,,yellow,red,red,yellow,left,,,,,0,157,157,165,,,,,,,,,left,0.6992389549914151,893.8809463974628,None,,,,,pg,002,2019_Sep_26_1136,StressSession,3.1.3,59.984823046462786,
,,,,yellow,orange,orange,yellow,left,,,,,0,158,158,160,,,,,,,,,left,0.8133116529870676,895.1022339830467,None,,,,,pg,002,2019_Sep_26_1136,StressSession,3.1.3,59.984823046462786,
,,,,brown,blue,brown,blue,right,,,,,0,159,159,83,,,,,,,,,right,0.8164348516543214,896.4434195441411,None,,,,,pg,002,2019_Sep_26_1136,StressSession,3.1.3,59.984823046462786,
,,,,black,magenta,black,magenta,right,,,,,0,160,160,103,,,,,,,,,right,0.889386287195066,897.7940071278902,None,,,,,pg,002,2019_Sep_26_1136,StressSession,3.1.3,59.984823046462786,
,,,,green,black,black,green,left,,,,,0,161,161,137,,,,,,,,,left,0.7669240461123081,899.221008545703,None,,,,,pg,002,2019_Sep_26_1136,StressSession,3.1.3,59.984823046462786,
,,,,green,purple,purple,green,left,,,,,0,162,162,134,,,,,,,,,left,0.7460728550090607,900.5138596207532,None,,,,,pg,002,2019_Sep_26_1136,StressSession,3.1.3,59.984823046462786,
,,,,magenta,brown,magenta,brown,right,,,,,0,163,163,34,,,,,,,,,right,0.7927203017725333,901.7951476074038,None,,,,,pg,002,2019_Sep_26_1136,StressSession,3.1.3,59.984823046462786,
,,,,cyan,yellow,yellow,cyan,left,,,,,0,164,164,150,,,,,,,,,left,0.6577196127063871,903.1216677880886,None,,,,,pg,002,2019_Sep_26_1136,StressSession,3.1.3,59.984823046462786,
,,,,green,orange,green,orange,right,,,,,0,165,165,23,,,,,,,,,right,0.7759885755781397,904.3239657284414,None,,,,,pg,002,2019_Sep_26_1136,StressSession,3.1.3,59.984823046462786,
,,,,black,red,red,black,left,,,,,0,166,166,210,,,,,,,,,left,0.6018399565482468,905.6340106094888,None,,,,,pg,002,2019_Sep_26_1136,StressSession,3.1.3,59.984823046462786,
,,,,purple,magenta,purple,magenta,right,,,,,0,167,167,76,,,,,,,,,right,0.7987542191981447,906.7730804168189,None,,,,,pg,002,2019_Sep_26_1136,StressSession,3.1.3,59.984823046462786,
,,,,orange,cyan,orange,cyan,right,,,,,0,168,168,68,,,,,,,,,right,0.7230964381456033,908.1043404354816,None,,,,,pg,002,2019_Sep_26_1136,StressSession,3.1.3,59.984823046462786,
,,,,white,blue,white,blue,right,,,,,0,169,169,92,,,,,,,,,right,0.7729912435233928,909.3664344036549,None,,,,,pg,002,2019_Sep_26_1136,StressSession,3.1.3,59.984823046462786,
,,,,orange,purple,purple,orange,left,,,,,0,170,170,170,,,,,,,,,left,0.8183164508513983,910.689036506011,None,,,,,pg,002,2019_Sep_26_1136,StressSession,3.1.3,59.984823046462786,
,,,,yellow,black,yellow,black,right,,,,,0,171,171,54,,,,,,,,,right,0.6338186095708807,912.0500812586322,None,,,,,pg,002,2019_Sep_26_1136,StressSession,3.1.3,59.984823046462786,
,,,,purple,cyan,cyan,purple,left,,,,,0,172,172,187,,,,,,,,,left,0.6605624914932378,913.2152741481498,None,,,,,pg,002,2019_Sep_26_1136,StressSession,3.1.3,59.984823046462786,
,,,,black,purple,black,purple,right,,,,,0,173,173,107,,,,,,,,,right,0.6640820633247131,914.4034810011815,None,,,,,pg,002,2019_Sep_26_1136,StressSession,3.1.3,59.984823046462786,
,,,,yellow,blue,yellow,blue,right,,,,,0,174,174,56,,,,,,,,,right,0.6779884040583966,915.5978437982533,None,,,,,pg,002,2019_Sep_26_1136,StressSession,3.1.3,59.984823046462786,
,,,,white,brown,white,brown,right,,,,,0,175,175,99,,,,,,,,,right,0.7692455384553796,916.8105912274812,None,,,,,pg,002,2019_Sep_26_1136,StressSession,3.1.3,59.984823046462786,
,,,,green,yellow,green,yellow,right,,,,,0,176,176,22,,,,,,,,,right,0.6529571614050838,918.1105288061742,None,,,,,pg,002,2019_Sep_26_1136,StressSession,3.1.3,59.984823046462786,
,,,,black,green,green,black,left,,,,,0,177,177,212,,,,,,,,,left,0.8245978348381868,919.2831648925164,None,,,,,pg,002,2019_Sep_26_1136,StressSession,3.1.3,59.984823046462786,
,,,,magenta,orange,magenta,orange,right,,,,,0,178,178,32,,,,,,,,,right,0.8925935391598614,920.6471835105351,None,,,,,pg,002,2019_Sep_26_1136,StressSession,3.1.3,59.984823046462786,
,,,,magenta,white,white,magenta,left,,,,,0,179,179,145,,,,,,,,,left,0.6620178508724166,922.0694101037186,None,,,,,pg,002,2019_Sep_26_1136,StressSession,3.1.3,59.984823046462786,
,,,,blue,orange,orange,blue,left,,,,,0,180,180,124,,,,,,,,,left,0.7478674142430464,923.2720549239232,None,,,,,pg,002,2019_Sep_26_1136,StressSession,3.1.3,59.984823046462786,
,,,,red,orange,red,orange,right,,,,,0,181,181,5,,,,,,,,,right,0.675671605046773,924.5519289378437,None,,,,,pg,002,2019_Sep_26_1136,StressSession,3.1.3,59.984823046462786,
,,,,brown,black,brown,black,right,,,,,0,182,182,81,,,,,,,,,right,0.6406802599763068,925.7706680445151,None,,,,,pg,002,2019_Sep_26_1136,StressSession,3.1.3,59.984823046462786,
,,,,yellow,brown,brown,yellow,left,,,,,0,183,183,162,,,,,,,,,left,0.8548924352458016,926.9489689817731,None,,,,,pg,002,2019_Sep_26_1136,StressSession,3.1.3,59.984823046462786,
,,,,red,purple,purple,red,left,,,,,0,184,184,116,,,,,,,,,left,0.671645580097902,928.3321666849422,None,,,,,pg,002,2019_Sep_26_1136,StressSession,3.1.3,59.984823046462786,
,,,,brown,cyan,brown,cyan,right,,,,,0,185,185,86,,,,,,,,,right,0.7584931163760302,929.5328420126541,None,,,,,pg,002,2019_Sep_26_1136,StressSession,3.1.3,59.984823046462786,
,,,,red,magenta,magenta,red,left,,,,,0,186,186,112,,,,,,,,,left,0.9073041462165747,930.832102898303,None,,,,,pg,002,2019_Sep_26_1136,StressSession,3.1.3,59.984823046462786,
,,,,blue,magenta,magenta,blue,left,,,,,0,187,187,121,,,,,,,,,left,0.9802615550884184,932.2794520407672,None,,,,,pg,002,2019_Sep_26_1136,StressSession,3.1.3,59.984823046462786,
,,,,cyan,red,red,cyan,left,,,,,0,188,188,156,,,,,,,,,left,0.7283922225524293,933.795011500795,None,,,,,pg,002,2019_Sep_26_1136,StressSession,3.1.3,59.984823046462786,
,,,,cyan,yellow,cyan,yellow,right,,,,,0,189,189,40,,,,,,,,,right,0.7099819904074138,935.0538043503768,None,,,,,pg,002,2019_Sep_26_1136,StressSession,3.1.3,59.984823046462786,
,,,,red,orange,orange,red,left,,,,,0,190,190,115,,,,,,,,,left,0.7500741333019505,936.2934245148056,None,,,,,pg,002,2019_Sep_26_1136,StressSession,3.1.3,59.984823046462786,
,,,,orange,cyan,cyan,orange,left,,,,,0,191,191,178,,,,,,,,,left,0.784938331759804,937.5787590063962,None,,,,,pg,002,2019_Sep_26_1136,StressSession,3.1.3,59.984823046462786,
,,,,brown,magenta,brown,magenta,right,,,,,0,192,192,85,,,,,,,,,right,0.7484327473353005,938.8955400979028,None,,,,,pg,002,2019_Sep_26_1136,StressSession,3.1.3,59.984823046462786,
,,,,green,brown,brown,green,left,,,,,0,193,193,135,,,,,,,,,left,1.8196459436176156,940.1682269148898,None,,,,,pg,002,2019_Sep_26_1136,StressSession,3.1.3,59.984823046462786,
,,,,blue,orange,blue,orange,right,,,,,0,194,194,14,,,,,,,,,right,0.7287391024046883,942.5231204168019,None,,,,,pg,002,2019_Sep_26_1136,StressSession,3.1.3,59.984823046462786,
,,,,purple,red,red,purple,left,,,,,0,195,195,183,,,,,,,,,left,0.7733888966877203,943.7899985962674,None,,,,,pg,002,2019_Sep_26_1136,StressSession,3.1.3,59.984823046462786,
,,,,cyan,black,black,cyan,left,,,,,0,196,196,155,,,,,,,,,left,0.6623877707147585,945.1011225168543,None,,,,,pg,002,2019_Sep_26_1136,StressSession,3.1.3,59.984823046462786,
,,,,black,red,black,red,right,,,,,0,197,197,100,,,,,,,,,right,0.7017195939329213,946.2937509146661,None,,,,,pg,002,2019_Sep_26_1136,StressSession,3.1.3,59.984823046462786,
,,,,cyan,red,cyan,red,right,,,,,0,198,198,46,,,,,,,,,right,0.7415233102838101,947.526392095406,None,,,,,pg,002,2019_Sep_26_1136,StressSession,3.1.3,59.984823046462786,
,,,,red,cyan,cyan,red,left,,,,,0,199,199,113,,,,,,,,,left,0.6705417939019753,948.7888372100963,None,,,,,pg,002,2019_Sep_26_1136,StressSession,3.1.3,59.984823046462786,
,,,,green,magenta,magenta,green,left,,,,,0,200,200,130,,,,,,,,,left,1.025487775792044,950.0022830923592,None,,,,,pg,002,2019_Sep_26_1136,StressSession,3.1.3,59.984823046462786,
,,,,brown,blue,blue,brown,left,,,,,0,201,201,193,,,,,,,,,left,0.6949415701583348,951.5644208791803,None,,,,,pg,002,2019_Sep_26_1136,StressSession,3.1.3,59.984823046462786,
,,,,purple,green,purple,green,right,,,,,0,202,202,75,,,,,,,,,right,0.6993110616272133,952.8005965650789,None,,,,,pg,002,2019_Sep_26_1136,StressSession,3.1.3,59.984823046462786,
,,,,orange,red,red,orange,left,,,,,0,203,203,174,,,,,,,,,left,0.7158763878924219,954.0320328396658,None,,,,,pg,002,2019_Sep_26_1136,StressSession,3.1.3,59.984823046462786,
,,,,blue,red,red,blue,left,,,,,0,204,204,129,,,,,,,,,left,0.6730365128378253,955.2749212693668,None,,,,,pg,002,2019_Sep_26_1136,StressSession,3.1.3,59.984823046462786,
,,,,purple,cyan,purple,cyan,right,,,,,0,205,205,77,,,,,,,,,right,0.7555610642939428,956.4798146219457,None,,,,,pg,002,2019_Sep_26_1136,StressSession,3.1.3,59.984823046462786,
,,,,orange,brown,orange,brown,right,,,,,0,206,206,61,,,,,,,,,right,1.30442653677801,957.778923614326,None,,,,,pg,002,2019_Sep_26_1136,StressSession,3.1.3,59.984823046462786,
,,,,blue,purple,purple,blue,left,,,,,0,207,207,125,,,,,,,,,left,1.0258875622880623,959.6255101331155,None,,,,,pg,002,2019_Sep_26_1136,StressSession,3.1.3,59.984823046462786,
,,,,black,brown,brown,black,left,,,,,0,208,208,218,,,,,,,,,left,0.9192755544422653,961.1889360260541,None,,,,,pg,002,2019_Sep_26_1136,StressSession,3.1.3,59.984823046462786,
,,,,magenta,yellow,magenta,yellow,right,,,,,0,209,209,31,,,,,,,,,right,0.7431817629089892,962.644575724981,None,,,,,pg,002,2019_Sep_26_1136,StressSession,3.1.3,59.984823046462786,
,,,,green,white,white,green,left,,,,,0,210,210,136,,,,,,,,,left,0.7755077224501292,963.923958219111,None,,,,,pg,002,2019_Sep_26_1136,StressSession,3.1.3,59.984823046462786,
,,,,yellow,purple,yellow,purple,right,,,,,0,211,211,51,,,,,,,,,right,0.7312504613332749,965.2407056039658,None,,,,,pg,002,2019_Sep_26_1136,StressSession,3.1.3,59.984823046462786,
,,,,green,orange,orange,green,left,,,,,0,212,212,133,,,,,,,,,left,0.6983847686892659,966.5055221309774,None,,,,,pg,002,2019_Sep_26_1136,StressSession,3.1.3,59.984823046462786,
,,,,black,orange,black,orange,right,,,,,0,213,213,106,,,,,,,,,right,0.7540732782622399,967.7374558986855,None,,,,,pg,002,2019_Sep_26_1136,StressSession,3.1.3,59.984823046462786,
,,,,blue,green,blue,green,right,,,,,0,214,214,10,,,,,,,,,right,0.6902345855000931,969.0332868124644,None,,,,,pg,002,2019_Sep_26_1136,StressSession,3.1.3,59.984823046462786,
,,,,orange,magenta,orange,magenta,right,,,,,0,215,215,67,,,,,,,,,right,0.8051798164569846,970.2702829780126,None,,,,,pg,002,2019_Sep_26_1136,StressSession,3.1.3,59.984823046462786,
,,,,white,red,red,white,left,,,,,0,216,216,201,,,,,,,,,left,0.6931137309384212,971.6143370178831,None,,,,,pg,002,2019_Sep_26_1136,StressSession,3.1.3,59.984823046462786,
,,,,magenta,green,green,magenta,left,,,,,0,217,217,149,,,,,,,,,left,0.8708352551102507,972.852691262852,None,,,,,pg,002,2019_Sep_26_1136,StressSession,3.1.3,59.984823046462786,
,,,,blue,yellow,blue,yellow,right,,,,,0,218,218,13,,,,,,,,,right,0.7761417488463849,974.2672259126505,None,,,,,pg,002,2019_Sep_26_1136,StressSession,3.1.3,59.984823046462786,
,,,,magenta,purple,purple,magenta,left,,,,,0,219,219,143,,,,,,,,,left,1.0821934582641006,975.5853902569004,None,,,,,pg,002,2019_Sep_26_1136,StressSession,3.1.3,59.984823046462786,
,,,,,,,,,,,,,,,,,,,,3,9.528,,,,,,,,2019-09-26_11:52:45,,,,pg,002,2019_Sep_26_1136,StressSession,3.1.3,59.984823046462786,
,,,,,,,,,,,,,,,,,,,,,,3,6.222,,,,,,,,,,pg,002,2019_Sep_26_1136,StressSession,3.1.3,59.984823046462786,
,,,,,,,,,,,,,,,,,,,,2,7.754,,,,,,,,,2019-09-26_11:53:43,2019-09-26_11:58:43,,pg,002,2019_Sep_26_1136,StressSession,3.1.3,59.984823046462786,
,,,,,,,,,,,,,,,,,,,,,,,,,,,,,,,,2019-09-26_11:58:53,,,,,,,
