Tick	Color	Tone	TimeDur	WordItem	WordColor	AnsLeft	AnsRight	AnsCorr	tick.thisRepN	tick.thisTrialN	tick.thisN	tick.thisIndex	stroop_trials.thisRepN	stroop_trials.thisTrialN	stroop_trials.thisN	stroop_trials.thisIndex	start_session_two	start_stress_one	end_stress_one	rating_evaluation_one.response	rating_evaluation_one.rt	rating_evaluation_two.response	rating_evaluation_two.rt	start_stress_two	key_resp_part_two_meas.keys	key_resp_part_two_meas.rt	key_resp_part_two_meas.started	key_resp_part_two_meas.stopped	end_stress_two	start_cooldown_measurement	end_cooldown_measurement	end_session_two	participant	session	date	expName	psychopyVersion	frameRate
1	green	440	1.0						0	0	0	0					2019-09-26_11:36:37	2019-09-26_11:38:15															pg	2	2019_Sep_26_1136	StressSession	03.01.2003	59.984.823.046.462.700
2	green	440	1.0						0	1	1	1																					pg	2	2019_Sep_26_1136	StressSession	03.01.2003	59.984.823.046.462.700
3	green	440	1.0						0	2	2	2																					pg	2	2019_Sep_26_1136	StressSession	03.01.2003	59.984.823.046.462.700
4	green	440	1.0						0	3	3	3																					pg	2	2019_Sep_26_1136	StressSession	03.01.2003	59.984.823.046.462.700
5	green	440	1.0						0	4	4	4																					pg	2	2019_Sep_26_1136	StressSession	03.01.2003	59.984.823.046.462.700
6	green	440	1.0						0	5	5	5																					pg	2	2019_Sep_26_1136	StressSession	03.01.2003	59.984.823.046.462.700
7	green	440	1.0						0	6	6	6																					pg	2	2019_Sep_26_1136	StressSession	03.01.2003	59.984.823.046.462.700
8	green	440	1.0						0	7	7	7																					pg	2	2019_Sep_26_1136	StressSession	03.01.2003	59.984.823.046.462.700
9	green	440	1.0						0	8	8	8																					pg	2	2019_Sep_26_1136	StressSession	03.01.2003	59.984.823.046.462.700
10	green	440	1.0						0	9	9	9																					pg	2	2019_Sep_26_1136	StressSession	03.01.2003	59.984.823.046.462.700
11	green	440	1.0						0	10	10	10																					pg	2	2019_Sep_26_1136	StressSession	03.01.2003	59.984.823.046.462.700
12	green	440	1.0						0	11	11	11																					pg	2	2019_Sep_26_1136	StressSession	03.01.2003	59.984.823.046.462.700
13	green	440	1.0						0	12	12	12																					pg	2	2019_Sep_26_1136	StressSession	03.01.2003	59.984.823.046.462.700
14	green	440	1.0						0	13	13	13																					pg	2	2019_Sep_26_1136	StressSession	03.01.2003	59.984.823.046.462.700
15	green	440	1.0						0	14	14	14																					pg	2	2019_Sep_26_1136	StressSession	03.01.2003	59.984.823.046.462.700
16	green	440	1.0						0	15	15	15																					pg	2	2019_Sep_26_1136	StressSession	03.01.2003	59.984.823.046.462.700
17	green	440	1.0						0	16	16	16																					pg	2	2019_Sep_26_1136	StressSession	03.01.2003	59.984.823.046.462.700
18	green	440	1.0						0	17	17	17																					pg	2	2019_Sep_26_1136	StressSession	03.01.2003	59.984.823.046.462.700
19	green	440	1.0						0	18	18	18																					pg	2	2019_Sep_26_1136	StressSession	03.01.2003	59.984.823.046.462.700
20	green	440	1.0						0	19	19	19																					pg	2	2019_Sep_26_1136	StressSession	03.01.2003	59.984.823.046.462.700
21	green	440	1.0						0	20	20	20																					pg	2	2019_Sep_26_1136	StressSession	03.01.2003	59.984.823.046.462.700
22	green	440	1.0						0	21	21	21																					pg	2	2019_Sep_26_1136	StressSession	03.01.2003	59.984.823.046.462.700
23	green	440	1.0						0	22	22	22																					pg	2	2019_Sep_26_1136	StressSession	03.01.2003	59.984.823.046.462.700
24	green	440	1.0						0	23	23	23																					pg	2	2019_Sep_26_1136	StressSession	03.01.2003	59.984.823.046.462.700
25	green	440	1.0						0	24	24	24																					pg	2	2019_Sep_26_1136	StressSession	03.01.2003	59.984.823.046.462.700
26	green	440	1.0						0	25	25	25																					pg	2	2019_Sep_26_1136	StressSession	03.01.2003	59.984.823.046.462.700
27	green	440	1.0						0	26	26	26																					pg	2	2019_Sep_26_1136	StressSession	03.01.2003	59.984.823.046.462.700
28	green	440	1.0						0	27	27	27																					pg	2	2019_Sep_26_1136	StressSession	03.01.2003	59.984.823.046.462.700
29	green	440	1.0						0	28	28	28																					pg	2	2019_Sep_26_1136	StressSession	03.01.2003	59.984.823.046.462.700
30	green	440	1.0						0	29	29	29																					pg	2	2019_Sep_26_1136	StressSession	03.01.2003	59.984.823.046.462.700
31	green	440	1.0						0	30	30	30																					pg	2	2019_Sep_26_1136	StressSession	03.01.2003	59.984.823.046.462.700
32	green	440	1.0						0	31	31	31																					pg	2	2019_Sep_26_1136	StressSession	03.01.2003	59.984.823.046.462.700
33	green	440	1.0						0	32	32	32																					pg	2	2019_Sep_26_1136	StressSession	03.01.2003	59.984.823.046.462.700
34	green	440	1.0						0	33	33	33																					pg	2	2019_Sep_26_1136	StressSession	03.01.2003	59.984.823.046.462.700
35	green	440	1.0						0	34	34	34																					pg	2	2019_Sep_26_1136	StressSession	03.01.2003	59.984.823.046.462.700
36	green	440	1.0						0	35	35	35																					pg	2	2019_Sep_26_1136	StressSession	03.01.2003	59.984.823.046.462.700
37	green	440	1.0						0	36	36	36																					pg	2	2019_Sep_26_1136	StressSession	03.01.2003	59.984.823.046.462.700
38	green	440	1.0						0	37	37	37																					pg	2	2019_Sep_26_1136	StressSession	03.01.2003	59.984.823.046.462.700
39	green	440	1.0						0	38	38	38																					pg	2	2019_Sep_26_1136	StressSession	03.01.2003	59.984.823.046.462.700
40	green	440	1.0						0	39	39	39																					pg	2	2019_Sep_26_1136	StressSession	03.01.2003	59.984.823.046.462.700
41	green	440	1.0						0	40	40	40																					pg	2	2019_Sep_26_1136	StressSession	03.01.2003	59.984.823.046.462.700
42	green	440	1.0						0	41	41	41																					pg	2	2019_Sep_26_1136	StressSession	03.01.2003	59.984.823.046.462.700
43	green	440	1.0						0	42	42	42																					pg	2	2019_Sep_26_1136	StressSession	03.01.2003	59.984.823.046.462.700
44	green	440	1.0						0	43	43	43																					pg	2	2019_Sep_26_1136	StressSession	03.01.2003	59.984.823.046.462.700
45	green	440	1.0						0	44	44	44																					pg	2	2019_Sep_26_1136	StressSession	03.01.2003	59.984.823.046.462.700
46	green	440	1.0						0	45	45	45																					pg	2	2019_Sep_26_1136	StressSession	03.01.2003	59.984.823.046.462.700
47	green	440	1.0						0	46	46	46																					pg	2	2019_Sep_26_1136	StressSession	03.01.2003	59.984.823.046.462.700
48	green	440	1.0						0	47	47	47																					pg	2	2019_Sep_26_1136	StressSession	03.01.2003	59.984.823.046.462.700
49	green	440	1.0						0	48	48	48																					pg	2	2019_Sep_26_1136	StressSession	03.01.2003	59.984.823.046.462.700
50	green	440	1.0						0	49	49	49																					pg	2	2019_Sep_26_1136	StressSession	03.01.2003	59.984.823.046.462.700
51	green	440	1.0						0	50	50	50																					pg	2	2019_Sep_26_1136	StressSession	03.01.2003	59.984.823.046.462.700
52	green	440	1.0						0	51	51	51																					pg	2	2019_Sep_26_1136	StressSession	03.01.2003	59.984.823.046.462.700
53	green	440	1.0						0	52	52	52																					pg	2	2019_Sep_26_1136	StressSession	03.01.2003	59.984.823.046.462.700
54	green	440	1.0						0	53	53	53																					pg	2	2019_Sep_26_1136	StressSession	03.01.2003	59.984.823.046.462.700
55	green	440	1.0						0	54	54	54																					pg	2	2019_Sep_26_1136	StressSession	03.01.2003	59.984.823.046.462.700
56	green	440	1.0						0	55	55	55																					pg	2	2019_Sep_26_1136	StressSession	03.01.2003	59.984.823.046.462.700
57	green	440	1.0						0	56	56	56																					pg	2	2019_Sep_26_1136	StressSession	03.01.2003	59.984.823.046.462.700
58	green	440	1.0						0	57	57	57																					pg	2	2019_Sep_26_1136	StressSession	03.01.2003	59.984.823.046.462.700
59	green	440	1.0						0	58	58	58																					pg	2	2019_Sep_26_1136	StressSession	03.01.2003	59.984.823.046.462.700
60	green	440	1.0						0	59	59	59																					pg	2	2019_Sep_26_1136	StressSession	03.01.2003	59.984.823.046.462.700
61	green	440	1.0						0	60	60	60																					pg	2	2019_Sep_26_1136	StressSession	03.01.2003	59.984.823.046.462.700
62	green	440	1.0						0	61	61	61																					pg	2	2019_Sep_26_1136	StressSession	03.01.2003	59.984.823.046.462.700
63	green	440	1.0						0	62	62	62																					pg	2	2019_Sep_26_1136	StressSession	03.01.2003	59.984.823.046.462.700
64	green	440	1.0						0	63	63	63																					pg	2	2019_Sep_26_1136	StressSession	03.01.2003	59.984.823.046.462.700
65	green	440	1.0						0	64	64	64																					pg	2	2019_Sep_26_1136	StressSession	03.01.2003	59.984.823.046.462.700
66	green	440	1.0						0	65	65	65																					pg	2	2019_Sep_26_1136	StressSession	03.01.2003	59.984.823.046.462.700
67	green	440	1.0						0	66	66	66																					pg	2	2019_Sep_26_1136	StressSession	03.01.2003	59.984.823.046.462.700
68	green	440	1.0						0	67	67	67																					pg	2	2019_Sep_26_1136	StressSession	03.01.2003	59.984.823.046.462.700
69	green	440	1.0						0	68	68	68																					pg	2	2019_Sep_26_1136	StressSession	03.01.2003	59.984.823.046.462.700
70	green	440	1.0						0	69	69	69																					pg	2	2019_Sep_26_1136	StressSession	03.01.2003	59.984.823.046.462.700
71	green	440	1.0						0	70	70	70																					pg	2	2019_Sep_26_1136	StressSession	03.01.2003	59.984.823.046.462.700
72	green	440	1.0						0	71	71	71																					pg	2	2019_Sep_26_1136	StressSession	03.01.2003	59.984.823.046.462.700
73	green	440	1.0						0	72	72	72																					pg	2	2019_Sep_26_1136	StressSession	03.01.2003	59.984.823.046.462.700
74	green	440	1.0						0	73	73	73																					pg	2	2019_Sep_26_1136	StressSession	03.01.2003	59.984.823.046.462.700
75	green	440	1.0						0	74	74	74																					pg	2	2019_Sep_26_1136	StressSession	03.01.2003	59.984.823.046.462.700
76	green	440	1.0						0	75	75	75																					pg	2	2019_Sep_26_1136	StressSession	03.01.2003	59.984.823.046.462.700
77	green	440	1.0						0	76	76	76																					pg	2	2019_Sep_26_1136	StressSession	03.01.2003	59.984.823.046.462.700
78	green	440	1.0						0	77	77	77																					pg	2	2019_Sep_26_1136	StressSession	03.01.2003	59.984.823.046.462.700
79	green	440	1.0						0	78	78	78																					pg	2	2019_Sep_26_1136	StressSession	03.01.2003	59.984.823.046.462.700
80	green	440	1.0						0	79	79	79																					pg	2	2019_Sep_26_1136	StressSession	03.01.2003	59.984.823.046.462.700
81	green	440	1.0						0	80	80	80																					pg	2	2019_Sep_26_1136	StressSession	03.01.2003	59.984.823.046.462.700
82	green	440	1.0						0	81	81	81																					pg	2	2019_Sep_26_1136	StressSession	03.01.2003	59.984.823.046.462.700
83	green	440	1.0						0	82	82	82																					pg	2	2019_Sep_26_1136	StressSession	03.01.2003	59.984.823.046.462.700
84	green	440	1.0						0	83	83	83																					pg	2	2019_Sep_26_1136	StressSession	03.01.2003	59.984.823.046.462.700
85	green	440	1.0						0	84	84	84																					pg	2	2019_Sep_26_1136	StressSession	03.01.2003	59.984.823.046.462.700
86	green	440	1.0						0	85	85	85																					pg	2	2019_Sep_26_1136	StressSession	03.01.2003	59.984.823.046.462.700
87	green	440	1.0						0	86	86	86																					pg	2	2019_Sep_26_1136	StressSession	03.01.2003	59.984.823.046.462.700
88	green	440	1.0						0	87	87	87																					pg	2	2019_Sep_26_1136	StressSession	03.01.2003	59.984.823.046.462.700
89	green	440	1.0						0	88	88	88																					pg	2	2019_Sep_26_1136	StressSession	03.01.2003	59.984.823.046.462.700
90	green	440	1.0						0	89	89	89																					pg	2	2019_Sep_26_1136	StressSession	03.01.2003	59.984.823.046.462.700
91	green	440	1.0						0	90	90	90																					pg	2	2019_Sep_26_1136	StressSession	03.01.2003	59.984.823.046.462.700
92	green	440	1.0						0	91	91	91																					pg	2	2019_Sep_26_1136	StressSession	03.01.2003	59.984.823.046.462.700
93	green	440	1.0						0	92	92	92																					pg	2	2019_Sep_26_1136	StressSession	03.01.2003	59.984.823.046.462.700
94	green	440	1.0						0	93	93	93																					pg	2	2019_Sep_26_1136	StressSession	03.01.2003	59.984.823.046.462.700
95	green	440	1.0						0	94	94	94																					pg	2	2019_Sep_26_1136	StressSession	03.01.2003	59.984.823.046.462.700
96	green	440	1.0						0	95	95	95																					pg	2	2019_Sep_26_1136	StressSession	03.01.2003	59.984.823.046.462.700
97	green	440	1.0						0	96	96	96																					pg	2	2019_Sep_26_1136	StressSession	03.01.2003	59.984.823.046.462.700
98	green	440	1.0						0	97	97	97																					pg	2	2019_Sep_26_1136	StressSession	03.01.2003	59.984.823.046.462.700
99	green	440	1.0						0	98	98	98																					pg	2	2019_Sep_26_1136	StressSession	03.01.2003	59.984.823.046.462.700
100	green	440	1.0						0	99	99	99																					pg	2	2019_Sep_26_1136	StressSession	03.01.2003	59.984.823.046.462.700
101	green	440	1.0						0	100	100	100																					pg	2	2019_Sep_26_1136	StressSession	03.01.2003	59.984.823.046.462.700
102	green	440	1.0						0	101	101	101																					pg	2	2019_Sep_26_1136	StressSession	03.01.2003	59.984.823.046.462.700
103	green	440	1.0						0	102	102	102																					pg	2	2019_Sep_26_1136	StressSession	03.01.2003	59.984.823.046.462.700
104	green	440	1.0						0	103	103	103																					pg	2	2019_Sep_26_1136	StressSession	03.01.2003	59.984.823.046.462.700
105	green	440	1.0						0	104	104	104																					pg	2	2019_Sep_26_1136	StressSession	03.01.2003	59.984.823.046.462.700
106	green	440	1.0						0	105	105	105																					pg	2	2019_Sep_26_1136	StressSession	03.01.2003	59.984.823.046.462.700
107	green	440	1.0						0	106	106	106																					pg	2	2019_Sep_26_1136	StressSession	03.01.2003	59.984.823.046.462.700
108	green	440	1.0						0	107	107	107																					pg	2	2019_Sep_26_1136	StressSession	03.01.2003	59.984.823.046.462.700
109	green	440	1.0						0	108	108	108																					pg	2	2019_Sep_26_1136	StressSession	03.01.2003	59.984.823.046.462.700
110	green	440	1.0						0	109	109	109																					pg	2	2019_Sep_26_1136	StressSession	03.01.2003	59.984.823.046.462.700
111	green	440	1.0						0	110	110	110																					pg	2	2019_Sep_26_1136	StressSession	03.01.2003	59.984.823.046.462.700
112	green	440	1.0						0	111	111	111																					pg	2	2019_Sep_26_1136	StressSession	03.01.2003	59.984.823.046.462.700
113	green	440	1.0						0	112	112	112																					pg	2	2019_Sep_26_1136	StressSession	03.01.2003	59.984.823.046.462.700
114	green	440	1.0						0	113	113	113																					pg	2	2019_Sep_26_1136	StressSession	03.01.2003	59.984.823.046.462.700
115	green	440	1.0						0	114	114	114																					pg	2	2019_Sep_26_1136	StressSession	03.01.2003	59.984.823.046.462.700
116	green	440	1.0						0	115	115	115																					pg	2	2019_Sep_26_1136	StressSession	03.01.2003	59.984.823.046.462.700
117	green	440	1.0						0	116	116	116																					pg	2	2019_Sep_26_1136	StressSession	03.01.2003	59.984.823.046.462.700
118	green	440	1.0						0	117	117	117																					pg	2	2019_Sep_26_1136	StressSession	03.01.2003	59.984.823.046.462.700
119	green	440	1.0						0	118	118	118																					pg	2	2019_Sep_26_1136	StressSession	03.01.2003	59.984.823.046.462.700
120	green	440	1.0						0	119	119	119																					pg	2	2019_Sep_26_1136	StressSession	03.01.2003	59.984.823.046.462.700
121	green	440	1.0						0	120	120	120																					pg	2	2019_Sep_26_1136	StressSession	03.01.2003	59.984.823.046.462.700
122	green	440	1.0						0	121	121	121																					pg	2	2019_Sep_26_1136	StressSession	03.01.2003	59.984.823.046.462.700
123	green	440	1.0						0	122	122	122																					pg	2	2019_Sep_26_1136	StressSession	03.01.2003	59.984.823.046.462.700
124	green	440	1.0						0	123	123	123																					pg	2	2019_Sep_26_1136	StressSession	03.01.2003	59.984.823.046.462.700
125	green	440	1.0						0	124	124	124																					pg	2	2019_Sep_26_1136	StressSession	03.01.2003	59.984.823.046.462.700
126	green	440	1.0						0	125	125	125																					pg	2	2019_Sep_26_1136	StressSession	03.01.2003	59.984.823.046.462.700
127	green	440	1.0						0	126	126	126																					pg	2	2019_Sep_26_1136	StressSession	03.01.2003	59.984.823.046.462.700
128	green	440	1.0						0	127	127	127																					pg	2	2019_Sep_26_1136	StressSession	03.01.2003	59.984.823.046.462.700
129	green	440	1.0						0	128	128	128																					pg	2	2019_Sep_26_1136	StressSession	03.01.2003	59.984.823.046.462.700
130	green	440	1.0						0	129	129	129																					pg	2	2019_Sep_26_1136	StressSession	03.01.2003	59.984.823.046.462.700
131	green	440	1.0						0	130	130	130																					pg	2	2019_Sep_26_1136	StressSession	03.01.2003	59.984.823.046.462.700
132	green	440	1.0						0	131	131	131																					pg	2	2019_Sep_26_1136	StressSession	03.01.2003	59.984.823.046.462.700
133	green	440	1.0						0	132	132	132																					pg	2	2019_Sep_26_1136	StressSession	03.01.2003	59.984.823.046.462.700
134	green	440	1.0						0	133	133	133																					pg	2	2019_Sep_26_1136	StressSession	03.01.2003	59.984.823.046.462.700
135	green	440	1.0						0	134	134	134																					pg	2	2019_Sep_26_1136	StressSession	03.01.2003	59.984.823.046.462.700
136	green	440	1.0						0	135	135	135																					pg	2	2019_Sep_26_1136	StressSession	03.01.2003	59.984.823.046.462.700
137	green	440	1.0						0	136	136	136																					pg	2	2019_Sep_26_1136	StressSession	03.01.2003	59.984.823.046.462.700
138	green	440	1.0						0	137	137	137																					pg	2	2019_Sep_26_1136	StressSession	03.01.2003	59.984.823.046.462.700
139	green	440	1.0						0	138	138	138																					pg	2	2019_Sep_26_1136	StressSession	03.01.2003	59.984.823.046.462.700
140	green	440	1.0						0	139	139	139																					pg	2	2019_Sep_26_1136	StressSession	03.01.2003	59.984.823.046.462.700
141	green	440	1.0						0	140	140	140																					pg	2	2019_Sep_26_1136	StressSession	03.01.2003	59.984.823.046.462.700
142	green	440	1.0						0	141	141	141																					pg	2	2019_Sep_26_1136	StressSession	03.01.2003	59.984.823.046.462.700
143	green	440	1.0						0	142	142	142																					pg	2	2019_Sep_26_1136	StressSession	03.01.2003	59.984.823.046.462.700
144	green	440	1.0						0	143	143	143																					pg	2	2019_Sep_26_1136	StressSession	03.01.2003	59.984.823.046.462.700
145	green	440	1.0						0	144	144	144																					pg	2	2019_Sep_26_1136	StressSession	03.01.2003	59.984.823.046.462.700
146	green	440	1.0						0	145	145	145																					pg	2	2019_Sep_26_1136	StressSession	03.01.2003	59.984.823.046.462.700
147	green	440	1.0						0	146	146	146																					pg	2	2019_Sep_26_1136	StressSession	03.01.2003	59.984.823.046.462.700
148	green	440	1.0						0	147	147	147																					pg	2	2019_Sep_26_1136	StressSession	03.01.2003	59.984.823.046.462.700
149	green	440	1.0						0	148	148	148																					pg	2	2019_Sep_26_1136	StressSession	03.01.2003	59.984.823.046.462.700
150	green	440	1.0						0	149	149	149																					pg	2	2019_Sep_26_1136	StressSession	03.01.2003	59.984.823.046.462.700
151	green	440	1.0						0	150	150	150																					pg	2	2019_Sep_26_1136	StressSession	03.01.2003	59.984.823.046.462.700
152	green	440	1.0						0	151	151	151																					pg	2	2019_Sep_26_1136	StressSession	03.01.2003	59.984.823.046.462.700
153	green	440	1.0						0	152	152	152																					pg	2	2019_Sep_26_1136	StressSession	03.01.2003	59.984.823.046.462.700
154	green	440	1.0						0	153	153	153																					pg	2	2019_Sep_26_1136	StressSession	03.01.2003	59.984.823.046.462.700
155	green	440	1.0						0	154	154	154																					pg	2	2019_Sep_26_1136	StressSession	03.01.2003	59.984.823.046.462.700
156	green	440	1.0						0	155	155	155																					pg	2	2019_Sep_26_1136	StressSession	03.01.2003	59.984.823.046.462.700
157	green	440	1.0						0	156	156	156																					pg	2	2019_Sep_26_1136	StressSession	03.01.2003	59.984.823.046.462.700
158	green	440	1.0						0	157	157	157																					pg	2	2019_Sep_26_1136	StressSession	03.01.2003	59.984.823.046.462.700
159	green	440	1.0						0	158	158	158																					pg	2	2019_Sep_26_1136	StressSession	03.01.2003	59.984.823.046.462.700
160	green	440	1.0						0	159	159	159																					pg	2	2019_Sep_26_1136	StressSession	03.01.2003	59.984.823.046.462.700
161	green	440	1.0						0	160	160	160																					pg	2	2019_Sep_26_1136	StressSession	03.01.2003	59.984.823.046.462.700
162	green	440	1.0						0	161	161	161																					pg	2	2019_Sep_26_1136	StressSession	03.01.2003	59.984.823.046.462.700
163	green	440	1.0						0	162	162	162																					pg	2	2019_Sep_26_1136	StressSession	03.01.2003	59.984.823.046.462.700
164	green	440	1.0						0	163	163	163																					pg	2	2019_Sep_26_1136	StressSession	03.01.2003	59.984.823.046.462.700
165	green	440	1.0						0	164	164	164																					pg	2	2019_Sep_26_1136	StressSession	03.01.2003	59.984.823.046.462.700
166	green	440	1.0						0	165	165	165																					pg	2	2019_Sep_26_1136	StressSession	03.01.2003	59.984.823.046.462.700
167	green	440	1.0						0	166	166	166																					pg	2	2019_Sep_26_1136	StressSession	03.01.2003	59.984.823.046.462.700
168	green	440	1.0						0	167	167	167																					pg	2	2019_Sep_26_1136	StressSession	03.01.2003	59.984.823.046.462.700
169	green	440	1.0						0	168	168	168																					pg	2	2019_Sep_26_1136	StressSession	03.01.2003	59.984.823.046.462.700
170	green	440	1.0						0	169	169	169																					pg	2	2019_Sep_26_1136	StressSession	03.01.2003	59.984.823.046.462.700
171	green	440	1.0						0	170	170	170																					pg	2	2019_Sep_26_1136	StressSession	03.01.2003	59.984.823.046.462.700
172	green	440	1.0						0	171	171	171																					pg	2	2019_Sep_26_1136	StressSession	03.01.2003	59.984.823.046.462.700
173	green	440	1.0						0	172	172	172																					pg	2	2019_Sep_26_1136	StressSession	03.01.2003	59.984.823.046.462.700
174	green	440	1.0						0	173	173	173																					pg	2	2019_Sep_26_1136	StressSession	03.01.2003	59.984.823.046.462.700
175	green	440	1.0						0	174	174	174																					pg	2	2019_Sep_26_1136	StressSession	03.01.2003	59.984.823.046.462.700
176	green	440	1.0						0	175	175	175																					pg	2	2019_Sep_26_1136	StressSession	03.01.2003	59.984.823.046.462.700
177	green	440	1.0						0	176	176	176																					pg	2	2019_Sep_26_1136	StressSession	03.01.2003	59.984.823.046.462.700
178	green	440	1.0						0	177	177	177																					pg	2	2019_Sep_26_1136	StressSession	03.01.2003	59.984.823.046.462.700
179	green	440	1.0						0	178	178	178																					pg	2	2019_Sep_26_1136	StressSession	03.01.2003	59.984.823.046.462.700
180	yellow	880	0.5						0	179	179	179																					pg	2	2019_Sep_26_1136	StressSession	03.01.2003	59.984.823.046.462.700
181	yellow	880	0.5						0	180	180	180																					pg	2	2019_Sep_26_1136	StressSession	03.01.2003	59.984.823.046.462.700
182	yellow	880	0.5						0	181	181	181																					pg	2	2019_Sep_26_1136	StressSession	03.01.2003	59.984.823.046.462.700
183	yellow	880	0.5						0	182	182	182																					pg	2	2019_Sep_26_1136	StressSession	03.01.2003	59.984.823.046.462.700
184	yellow	880	0.5						0	183	183	183																					pg	2	2019_Sep_26_1136	StressSession	03.01.2003	59.984.823.046.462.700
185	yellow	880	0.5						0	184	184	184																					pg	2	2019_Sep_26_1136	StressSession	03.01.2003	59.984.823.046.462.700
186	yellow	880	0.5						0	185	185	185																					pg	2	2019_Sep_26_1136	StressSession	03.01.2003	59.984.823.046.462.700
187	yellow	880	0.5						0	186	186	186																					pg	2	2019_Sep_26_1136	StressSession	03.01.2003	59.984.823.046.462.700
188	yellow	880	0.5						0	187	187	187																					pg	2	2019_Sep_26_1136	StressSession	03.01.2003	59.984.823.046.462.700
189	yellow	880	0.5						0	188	188	188																					pg	2	2019_Sep_26_1136	StressSession	03.01.2003	59.984.823.046.462.700
190	yellow	880	0.5						0	189	189	189																					pg	2	2019_Sep_26_1136	StressSession	03.01.2003	59.984.823.046.462.700
191	yellow	880	0.5						0	190	190	190																					pg	2	2019_Sep_26_1136	StressSession	03.01.2003	59.984.823.046.462.700
192	yellow	880	0.5						0	191	191	191																					pg	2	2019_Sep_26_1136	StressSession	03.01.2003	59.984.823.046.462.700
193	yellow	880	0.5						0	192	192	192																					pg	2	2019_Sep_26_1136	StressSession	03.01.2003	59.984.823.046.462.700
194	yellow	880	0.5						0	193	193	193																					pg	2	2019_Sep_26_1136	StressSession	03.01.2003	59.984.823.046.462.700
195	yellow	880	0.5						0	194	194	194																					pg	2	2019_Sep_26_1136	StressSession	03.01.2003	59.984.823.046.462.700
196	yellow	880	0.5						0	195	195	195																					pg	2	2019_Sep_26_1136	StressSession	03.01.2003	59.984.823.046.462.700
197	yellow	880	0.5						0	196	196	196																					pg	2	2019_Sep_26_1136	StressSession	03.01.2003	59.984.823.046.462.700
198	yellow	880	0.5						0	197	197	197																					pg	2	2019_Sep_26_1136	StressSession	03.01.2003	59.984.823.046.462.700
199	yellow	880	0.5						0	198	198	198																					pg	2	2019_Sep_26_1136	StressSession	03.01.2003	59.984.823.046.462.700
200	yellow	880	0.5						0	199	199	199																					pg	2	2019_Sep_26_1136	StressSession	03.01.2003	59.984.823.046.462.700
201	yellow	880	0.5						0	200	200	200																					pg	2	2019_Sep_26_1136	StressSession	03.01.2003	59.984.823.046.462.700
202	yellow	880	0.5						0	201	201	201																					pg	2	2019_Sep_26_1136	StressSession	03.01.2003	59.984.823.046.462.700
203	yellow	880	0.5						0	202	202	202																					pg	2	2019_Sep_26_1136	StressSession	03.01.2003	59.984.823.046.462.700
204	yellow	880	0.5						0	203	203	203																					pg	2	2019_Sep_26_1136	StressSession	03.01.2003	59.984.823.046.462.700
205	yellow	880	0.5						0	204	204	204																					pg	2	2019_Sep_26_1136	StressSession	03.01.2003	59.984.823.046.462.700
206	yellow	880	0.5						0	205	205	205																					pg	2	2019_Sep_26_1136	StressSession	03.01.2003	59.984.823.046.462.700
207	yellow	880	0.5						0	206	206	206																					pg	2	2019_Sep_26_1136	StressSession	03.01.2003	59.984.823.046.462.700
208	yellow	880	0.5						0	207	207	207																					pg	2	2019_Sep_26_1136	StressSession	03.01.2003	59.984.823.046.462.700
209	yellow	880	0.5						0	208	208	208																					pg	2	2019_Sep_26_1136	StressSession	03.01.2003	59.984.823.046.462.700
210	yellow	880	0.5						0	209	209	209																					pg	2	2019_Sep_26_1136	StressSession	03.01.2003	59.984.823.046.462.700
211	yellow	880	0.5						0	210	210	210																					pg	2	2019_Sep_26_1136	StressSession	03.01.2003	59.984.823.046.462.700
212	yellow	880	0.5						0	211	211	211																					pg	2	2019_Sep_26_1136	StressSession	03.01.2003	59.984.823.046.462.700
213	yellow	880	0.5						0	212	212	212																					pg	2	2019_Sep_26_1136	StressSession	03.01.2003	59.984.823.046.462.700
214	yellow	880	0.5						0	213	213	213																					pg	2	2019_Sep_26_1136	StressSession	03.01.2003	59.984.823.046.462.700
215	yellow	880	0.5						0	214	214	214																					pg	2	2019_Sep_26_1136	StressSession	03.01.2003	59.984.823.046.462.700
216	yellow	880	0.5						0	215	215	215																					pg	2	2019_Sep_26_1136	StressSession	03.01.2003	59.984.823.046.462.700
217	yellow	880	0.5						0	216	216	216																					pg	2	2019_Sep_26_1136	StressSession	03.01.2003	59.984.823.046.462.700
218	yellow	880	0.5						0	217	217	217																					pg	2	2019_Sep_26_1136	StressSession	03.01.2003	59.984.823.046.462.700
219	yellow	880	0.5						0	218	218	218																					pg	2	2019_Sep_26_1136	StressSession	03.01.2003	59.984.823.046.462.700
220	yellow	880	0.5						0	219	219	219																					pg	2	2019_Sep_26_1136	StressSession	03.01.2003	59.984.823.046.462.700
221	yellow	880	0.5						0	220	220	220																					pg	2	2019_Sep_26_1136	StressSession	03.01.2003	59.984.823.046.462.700
222	yellow	880	0.5						0	221	221	221																					pg	2	2019_Sep_26_1136	StressSession	03.01.2003	59.984.823.046.462.700
223	yellow	880	0.5						0	222	222	222																					pg	2	2019_Sep_26_1136	StressSession	03.01.2003	59.984.823.046.462.700
224	yellow	880	0.5						0	223	223	223																					pg	2	2019_Sep_26_1136	StressSession	03.01.2003	59.984.823.046.462.700
225	yellow	880	0.5						0	224	224	224																					pg	2	2019_Sep_26_1136	StressSession	03.01.2003	59.984.823.046.462.700
226	yellow	880	0.5						0	225	225	225																					pg	2	2019_Sep_26_1136	StressSession	03.01.2003	59.984.823.046.462.700
227	yellow	880	0.5						0	226	226	226																					pg	2	2019_Sep_26_1136	StressSession	03.01.2003	59.984.823.046.462.700
228	yellow	880	0.5						0	227	227	227																					pg	2	2019_Sep_26_1136	StressSession	03.01.2003	59.984.823.046.462.700
229	yellow	880	0.5						0	228	228	228																					pg	2	2019_Sep_26_1136	StressSession	03.01.2003	59.984.823.046.462.700
230	yellow	880	0.5						0	229	229	229																					pg	2	2019_Sep_26_1136	StressSession	03.01.2003	59.984.823.046.462.700
231	yellow	880	0.5						0	230	230	230																					pg	2	2019_Sep_26_1136	StressSession	03.01.2003	59.984.823.046.462.700
232	yellow	880	0.5						0	231	231	231																					pg	2	2019_Sep_26_1136	StressSession	03.01.2003	59.984.823.046.462.700
233	yellow	880	0.5						0	232	232	232																					pg	2	2019_Sep_26_1136	StressSession	03.01.2003	59.984.823.046.462.700
234	yellow	880	0.5						0	233	233	233																					pg	2	2019_Sep_26_1136	StressSession	03.01.2003	59.984.823.046.462.700
235	yellow	880	0.5						0	234	234	234																					pg	2	2019_Sep_26_1136	StressSession	03.01.2003	59.984.823.046.462.700
236	yellow	880	0.5						0	235	235	235																					pg	2	2019_Sep_26_1136	StressSession	03.01.2003	59.984.823.046.462.700
237	yellow	880	0.5						0	236	236	236																					pg	2	2019_Sep_26_1136	StressSession	03.01.2003	59.984.823.046.462.700
238	yellow	880	0.5						0	237	237	237																					pg	2	2019_Sep_26_1136	StressSession	03.01.2003	59.984.823.046.462.700
239	yellow	880	0.5						0	238	238	238																					pg	2	2019_Sep_26_1136	StressSession	03.01.2003	59.984.823.046.462.700
240	red	1760	0.5						0	239	239	239																					pg	2	2019_Sep_26_1136	StressSession	03.01.2003	59.984.823.046.462.700
241	red	1760	0.5						0	240	240	240																					pg	2	2019_Sep_26_1136	StressSession	03.01.2003	59.984.823.046.462.700
242	red	1760	0.5						0	241	241	241																					pg	2	2019_Sep_26_1136	StressSession	03.01.2003	59.984.823.046.462.700
243	red	1760	0.5						0	242	242	242																					pg	2	2019_Sep_26_1136	StressSession	03.01.2003	59.984.823.046.462.700
244	red	1760	0.5						0	243	243	243																					pg	2	2019_Sep_26_1136	StressSession	03.01.2003	59.984.823.046.462.700
245	red	1760	0.5						0	244	244	244																					pg	2	2019_Sep_26_1136	StressSession	03.01.2003	59.984.823.046.462.700
246	red	1760	0.5						0	245	245	245																					pg	2	2019_Sep_26_1136	StressSession	03.01.2003	59.984.823.046.462.700
247	red	1760	0.5						0	246	246	246																					pg	2	2019_Sep_26_1136	StressSession	03.01.2003	59.984.823.046.462.700
248	red	1760	0.5						0	247	247	247																					pg	2	2019_Sep_26_1136	StressSession	03.01.2003	59.984.823.046.462.700
249	red	1760	0.5						0	248	248	248																					pg	2	2019_Sep_26_1136	StressSession	03.01.2003	59.984.823.046.462.700
250	red	1760	0.5						0	249	249	249																					pg	2	2019_Sep_26_1136	StressSession	03.01.2003	59.984.823.046.462.700
251	red	1760	0.5						0	250	250	250																					pg	2	2019_Sep_26_1136	StressSession	03.01.2003	59.984.823.046.462.700
252	red	1760	0.5						0	251	251	251																					pg	2	2019_Sep_26_1136	StressSession	03.01.2003	59.984.823.046.462.700
253	red	1760	0.5						0	252	252	252																					pg	2	2019_Sep_26_1136	StressSession	03.01.2003	59.984.823.046.462.700
254	red	1760	0.5						0	253	253	253																					pg	2	2019_Sep_26_1136	StressSession	03.01.2003	59.984.823.046.462.700
255	red	1760	0.5						0	254	254	254																					pg	2	2019_Sep_26_1136	StressSession	03.01.2003	59.984.823.046.462.700
256	red	1760	0.5						0	255	255	255																					pg	2	2019_Sep_26_1136	StressSession	03.01.2003	59.984.823.046.462.700
257	red	1760	0.5						0	256	256	256																					pg	2	2019_Sep_26_1136	StressSession	03.01.2003	59.984.823.046.462.700
258	red	1760	0.5						0	257	257	257																					pg	2	2019_Sep_26_1136	StressSession	03.01.2003	59.984.823.046.462.700
259	red	1760	0.5						0	258	258	258																					pg	2	2019_Sep_26_1136	StressSession	03.01.2003	59.984.823.046.462.700
260	red	1760	0.5						0	259	259	259																					pg	2	2019_Sep_26_1136	StressSession	03.01.2003	59.984.823.046.462.700
261	red	1760	0.5						0	260	260	260																					pg	2	2019_Sep_26_1136	StressSession	03.01.2003	59.984.823.046.462.700
262	red	1760	0.5						0	261	261	261																					pg	2	2019_Sep_26_1136	StressSession	03.01.2003	59.984.823.046.462.700
263	red	1760	0.5						0	262	262	262																					pg	2	2019_Sep_26_1136	StressSession	03.01.2003	59.984.823.046.462.700
264	red	1760	0.5						0	263	263	263																					pg	2	2019_Sep_26_1136	StressSession	03.01.2003	59.984.823.046.462.700
265	red	1760	0.5						0	264	264	264																					pg	2	2019_Sep_26_1136	StressSession	03.01.2003	59.984.823.046.462.700
266	red	1760	0.5						0	265	265	265																					pg	2	2019_Sep_26_1136	StressSession	03.01.2003	59.984.823.046.462.700
267	red	1760	0.5						0	266	266	266																					pg	2	2019_Sep_26_1136	StressSession	03.01.2003	59.984.823.046.462.700
268	red	1760	0.5						0	267	267	267																					pg	2	2019_Sep_26_1136	StressSession	03.01.2003	59.984.823.046.462.700
269	red	1760	0.5						0	268	268	268																					pg	2	2019_Sep_26_1136	StressSession	03.01.2003	59.984.823.046.462.700
270	red	1760	0.5						0	269	269	269																					pg	2	2019_Sep_26_1136	StressSession	03.01.2003	59.984.823.046.462.700
271	red	1760	0.5						0	270	270	270																					pg	2	2019_Sep_26_1136	StressSession	03.01.2003	59.984.823.046.462.700
272	red	1760	0.5						0	271	271	271																					pg	2	2019_Sep_26_1136	StressSession	03.01.2003	59.984.823.046.462.700
273	red	1760	0.5						0	272	272	272																					pg	2	2019_Sep_26_1136	StressSession	03.01.2003	59.984.823.046.462.700
274	red	1760	0.5						0	273	273	273																					pg	2	2019_Sep_26_1136	StressSession	03.01.2003	59.984.823.046.462.700
275	red	1760	0.5						0	274	274	274																					pg	2	2019_Sep_26_1136	StressSession	03.01.2003	59.984.823.046.462.700
276	red	1760	0.5						0	275	275	275																					pg	2	2019_Sep_26_1136	StressSession	03.01.2003	59.984.823.046.462.700
277	red	1760	0.5						0	276	276	276																					pg	2	2019_Sep_26_1136	StressSession	03.01.2003	59.984.823.046.462.700
278	red	1760	0.5						0	277	277	277																					pg	2	2019_Sep_26_1136	StressSession	03.01.2003	59.984.823.046.462.700
279	red	1760	0.5						0	278	278	278																					pg	2	2019_Sep_26_1136	StressSession	03.01.2003	59.984.823.046.462.700
280	red	1760	0.5						0	279	279	279																					pg	2	2019_Sep_26_1136	StressSession	03.01.2003	59.984.823.046.462.700
281	red	1760	0.5						0	280	280	280																					pg	2	2019_Sep_26_1136	StressSession	03.01.2003	59.984.823.046.462.700
282	red	1760	0.5						0	281	281	281																					pg	2	2019_Sep_26_1136	StressSession	03.01.2003	59.984.823.046.462.700
283	red	1760	0.5						0	282	282	282																					pg	2	2019_Sep_26_1136	StressSession	03.01.2003	59.984.823.046.462.700
284	red	1760	0.5						0	283	283	283																					pg	2	2019_Sep_26_1136	StressSession	03.01.2003	59.984.823.046.462.700
285	red	1760	0.5						0	284	284	284																					pg	2	2019_Sep_26_1136	StressSession	03.01.2003	59.984.823.046.462.700
286	red	1760	0.5						0	285	285	285																					pg	2	2019_Sep_26_1136	StressSession	03.01.2003	59.984.823.046.462.700
287	red	1760	0.5						0	286	286	286																					pg	2	2019_Sep_26_1136	StressSession	03.01.2003	59.984.823.046.462.700
288	red	1760	0.5						0	287	287	287																					pg	2	2019_Sep_26_1136	StressSession	03.01.2003	59.984.823.046.462.700
289	red	1760	0.5						0	288	288	288																					pg	2	2019_Sep_26_1136	StressSession	03.01.2003	59.984.823.046.462.700
290	red	1760	0.5						0	289	289	289																					pg	2	2019_Sep_26_1136	StressSession	03.01.2003	59.984.823.046.462.700
291	red	1760	0.5						0	290	290	290																					pg	2	2019_Sep_26_1136	StressSession	03.01.2003	59.984.823.046.462.700
292	red	1760	0.5						0	291	291	291																					pg	2	2019_Sep_26_1136	StressSession	03.01.2003	59.984.823.046.462.700
293	red	1760	0.5						0	292	292	292																					pg	2	2019_Sep_26_1136	StressSession	03.01.2003	59.984.823.046.462.700
294	red	1760	0.5						0	293	293	293																					pg	2	2019_Sep_26_1136	StressSession	03.01.2003	59.984.823.046.462.700
295	red	1760	0.5						0	294	294	294																					pg	2	2019_Sep_26_1136	StressSession	03.01.2003	59.984.823.046.462.700
296	red	1760	0.5						0	295	295	295																					pg	2	2019_Sep_26_1136	StressSession	03.01.2003	59.984.823.046.462.700
297	red	1760	0.5						0	296	296	296																					pg	2	2019_Sep_26_1136	StressSession	03.01.2003	59.984.823.046.462.700
298	red	1760	0.5						0	297	297	297																					pg	2	2019_Sep_26_1136	StressSession	03.01.2003	59.984.823.046.462.700
299	red	1760	0.5						0	298	298	298																					pg	2	2019_Sep_26_1136	StressSession	03.01.2003	59.984.823.046.462.700
300	red	1760	0.5						0	299	299	299																					pg	2	2019_Sep_26_1136	StressSession	03.01.2003	59.984.823.046.462.700
																			2019-09-26_11:44:50	5	30.117												pg	2	2019_Sep_26_1136	StressSession	03.01.2003	59.984.823.046.462.700
																						6	16.401										pg	2	2019_Sep_26_1136	StressSession	03.01.2003	59.984.823.046.462.700
				white	brown	brown	white	left					0	0	0	209								2019-09-26_11:47:40	left	154.570.174.050.059	6.744.982.001.074.340	None					pg	2	2019_Sep_26_1136	StressSession	03.01.2003	59.984.823.046.462.700
				white	purple	white	purple	right					0	1	1	98									right	0.8657877905970963	6.765.701.322.367.430	None					pg	2	2019_Sep_26_1136	StressSession	03.01.2003	59.984.823.046.462.700
				brown	black	black	brown	left					0	2	2	191									left	1.129.619.571.362.580	6.779.860.168.592.990	None					pg	2	2019_Sep_26_1136	StressSession	03.01.2003	59.984.823.046.462.700
				brown	cyan	cyan	brown	left					0	3	3	196									left	0.9821286476249043	6.796.455.894.845.480	None					pg	2	2019_Sep_26_1136	StressSession	03.01.2003	59.984.823.046.462.700
				purple	yellow	purple	yellow	right					0	4	4	78									right	0.9293444568129416	6.811.782.057.906.320	None					pg	2	2019_Sep_26_1136	StressSession	03.01.2003	59.984.823.046.462.700
				cyan	blue	cyan	blue	right					0	5	5	47									right	0.7465315214799375	6.826.414.712.996.390	None					pg	2	2019_Sep_26_1136	StressSession	03.01.2003	59.984.823.046.462.700
				black	cyan	cyan	black	left					0	6	6	214									left	0.7131329223966532	6.839.143.185.432.240	None					pg	2	2019_Sep_26_1136	StressSession	03.01.2003	59.984.823.046.462.700
				black	orange	orange	black	left					0	7	7	216									left	120.597.580.545.018	6.851.574.813.194.740	None					pg	2	2019_Sep_26_1136	StressSession	03.01.2003	59.984.823.046.462.700
				blue	white	white	blue	left					0	8	8	127									left	14.493.578.882.738.800	6.868.983.420.167.070	None					pg	2	2019_Sep_26_1136	StressSession	03.01.2003	59.984.823.046.462.700
				red	blue	blue	red	left					0	9	9	110									left	0.8851294356777544	6.888.783.590.919.000	None					pg	2	2019_Sep_26_1136	StressSession	03.01.2003	59.984.823.046.462.700
				cyan	black	cyan	black	right					0	10	10	45									right	0.7072811915600141	690.296.157.740.306	None					pg	2	2019_Sep_26_1136	StressSession	03.01.2003	59.984.823.046.462.700
				white	black	white	black	right					0	11	11	90									right	0.6826164554167917	6.915.370.092.642.090	None					pg	2	2019_Sep_26_1136	StressSession	03.01.2003	59.984.823.046.462.700
				green	white	green	white	right					0	12	12	26									right	0.7088508975566583	6.927.669.470.861.020	None					pg	2	2019_Sep_26_1136	StressSession	03.01.2003	59.984.823.046.462.700
				cyan	brown	cyan	brown	right					0	13	13	43									right	0.8581884338395867	6.940.092.902.360.360	None					pg	2	2019_Sep_26_1136	StressSession	03.01.2003	59.984.823.046.462.700
				purple	magenta	magenta	purple	left					0	14	14	186									right	0.8043269101540318	6.954.152.604.094.890	None					pg	2	2019_Sep_26_1136	StressSession	03.01.2003	59.984.823.046.462.700
				brown	red	brown	red	right					0	15	15	82									right	14.781.233.160.006.100	6.967.577.438.900.290	None					pg	2	2019_Sep_26_1136	StressSession	03.01.2003	59.984.823.046.462.700
				orange	green	green	orange	left					0	16	16	176									left	10.352.464.916.277.300	6.987.764.250.553.920	None					pg	2	2019_Sep_26_1136	StressSession	03.01.2003	59.984.823.046.462.700
				red	purple	red	purple	right					0	17	17	6									right	0.7069419917047526	7.003.527.913.161.420	None					pg	2	2019_Sep_26_1136	StressSession	03.01.2003	59.984.823.046.462.700
				red	green	red	green	right					0	18	18	1									right	0.6901577855323922	7.015.932.848.668.650	None					pg	2	2019_Sep_26_1136	StressSession	03.01.2003	59.984.823.046.462.700
				orange	yellow	yellow	orange	left					0	19	19	179									left	10.601.467.476.708.400	7.028.232.636.487.400	None					pg	2	2019_Sep_26_1136	StressSession	03.01.2003	59.984.823.046.462.700
				cyan	brown	brown	cyan	left					0	20	20	153									left	0.7870452108609243	7.044.169.231.287.790	None					pg	2	2019_Sep_26_1136	StressSession	03.01.2003	59.984.823.046.462.700
				white	green	green	white	left					0	21	21	203									left	0.8765700793301221	7.057.352.013.929.800	None					pg	2	2019_Sep_26_1136	StressSession	03.01.2003	59.984.823.046.462.700
				red	brown	red	brown	right					0	22	22	7									right	1.290.685.742.641.010	7.071.451.856.447.200	None					pg	2	2019_Sep_26_1136	StressSession	03.01.2003	59.984.823.046.462.700
				brown	yellow	brown	yellow	right					0	23	23	87									right	0.7679570056716329	7.089.641.139.353.110	None					pg	2	2019_Sep_26_1136	StressSession	03.01.2003	59.984.823.046.462.700
				green	purple	green	purple	right					0	24	24	24									right	0.914337743215583	7.102.651.297.002.110	None					pg	2	2019_Sep_26_1136	StressSession	03.01.2003	59.984.823.046.462.700
				blue	green	green	blue	left					0	25	25	120									left	0.8119889868848986	7.117.036.242.331.200	None					pg	2	2019_Sep_26_1136	StressSession	03.01.2003	59.984.823.046.462.700
				white	orange	white	orange	right					0	26	26	97									right	10.208.447.911.063.500	7.130.468.249.400.210	None					pg	2	2019_Sep_26_1136	StressSession	03.01.2003	59.984.823.046.462.700
				blue	yellow	yellow	blue	left					0	27	27	123									left	0.6875005066663107	7.146.120.688.588.500	None					pg	2	2019_Sep_26_1136	StressSession	03.01.2003	59.984.823.046.462.700
				yellow	white	yellow	white	right					0	28	28	53									right	0.7802838270786197	7.158.394.415.618.380	None					pg	2	2019_Sep_26_1136	StressSession	03.01.2003	59.984.823.046.462.700
				brown	yellow	yellow	brown	left					0	29	29	197									left	0.6460933776670572	7.171.493.793.495.980	None					pg	2	2019_Sep_26_1136	StressSession	03.01.2003	59.984.823.046.462.700
				magenta	green	magenta	green	right					0	30	30	39									right	0.8709700817194062	7.183.327.426.846.960	None					pg	2	2019_Sep_26_1136	StressSession	03.01.2003	59.984.823.046.462.700
				magenta	blue	blue	magenta	left					0	31	31	148									left	0.7486593072389951	7.197.348.272.064.730	None					pg	2	2019_Sep_26_1136	StressSession	03.01.2003	59.984.823.046.462.700
				white	blue	blue	white	left					0	32	32	202									left	10.375.871.839.628.400	7.210.143.731.138.670	None					pg	2	2019_Sep_26_1136	StressSession	03.01.2003	59.984.823.046.462.700
				white	yellow	yellow	white	left					0	33	33	206									left	0.7557829308661894	7.225.760.722.875.420	None					pg	2	2019_Sep_26_1136	StressSession	03.01.2003	59.984.823.046.462.700
				yellow	red	yellow	red	right					0	34	34	55									right	0.7468993079896791	7.238.645.999.511.030	None					pg	2	2019_Sep_26_1136	StressSession	03.01.2003	59.984.823.046.462.700
				blue	magenta	blue	magenta	right					0	35	35	11									right	0.9294831234205958	7.251.539.869.209.650	None					pg	2	2019_Sep_26_1136	StressSession	03.01.2003	59.984.823.046.462.700
				green	blue	green	blue	right					0	36	36	29									right	0.8026701641938416	7.266.172.908.299.560	None					pg	2	2019_Sep_26_1136	StressSession	03.01.2003	59.984.823.046.462.700
				white	cyan	cyan	white	left					0	37	37	205									left	0.903157374652892	72.794.872.663.521	None					pg	2	2019_Sep_26_1136	StressSession	03.01.2003	59.984.823.046.462.700
				green	black	green	black	right					0	38	38	27									right	0.6936086640603207	7.293.822.436.769.090	None					pg	2	2019_Sep_26_1136	StressSession	03.01.2003	59.984.823.046.462.700
				black	brown	black	brown	right					0	39	39	108									right	0.799404458920435	7.306.125.386.186.500	None					pg	2	2019_Sep_26_1136	StressSession	03.01.2003	59.984.823.046.462.700
				black	purple	purple	black	left					0	40	40	217									left	0.7225298250541528	7.319.374.263.733.640	None					pg	2	2019_Sep_26_1136	StressSession	03.01.2003	59.984.823.046.462.700
				blue	black	black	blue	left					0	41	41	128									left	0.7611981818886306	7.331.945.437.036.610	None					pg	2	2019_Sep_26_1136	StressSession	03.01.2003	59.984.823.046.462.700
				orange	brown	brown	orange	left					0	42	42	171									left	0.8019128311839268	734.497.744.427.629	None					pg	2	2019_Sep_26_1136	StressSession	03.01.2003	59.984.823.046.462.700
				white	cyan	white	cyan	right					0	43	43	95									right	0.8243755416001477	7.358.430.767.602.870	None					pg	2	2019_Sep_26_1136	StressSession	03.01.2003	59.984.823.046.462.700
				cyan	green	green	cyan	left					0	44	44	158									left	0.7833187057840405	7.372.046.595.393.450	None					pg	2	2019_Sep_26_1136	StressSession	03.01.2003	59.984.823.046.462.700
				purple	blue	purple	blue	right					0	45	45	74									right	0.717679480456809	7.385.261.847.354.940	None					pg	2	2019_Sep_26_1136	StressSession	03.01.2003	59.984.823.046.462.700
				brown	green	brown	green	right					0	46	46	84									right	0.7678247390613251	7.397.720.640.972.520	None					pg	2	2019_Sep_26_1136	StressSession	03.01.2003	59.984.823.046.462.700
				yellow	cyan	cyan	yellow	left					0	47	47	169									left	0.7300276351879802	7.410.733.904.753.530	None					pg	2	2019_Sep_26_1136	StressSession	03.01.2003	59.984.823.046.462.700
				purple	white	white	purple	left					0	48	48	181									left	0.6639472367160124	7.423.394.904.151.500	None					pg	2	2019_Sep_26_1136	StressSession	03.01.2003	59.984.823.046.462.700
				brown	green	green	brown	left					0	49	49	194									left	0.8759671995876488	7.435.354.510.782.070	None					pg	2	2019_Sep_26_1136	StressSession	03.01.2003	59.984.823.046.462.700
				purple	blue	blue	purple	left					0	50	50	184									left	0.7128449225192526	7.449.548.736.192.530	None					pg	2	2019_Sep_26_1136	StressSession	03.01.2003	59.984.823.046.462.700
				black	blue	black	blue	right					0	51	51	101									right	10.285.000.411.736.200	7.461.992.570.883.160	None					pg	2	2019_Sep_26_1136	StressSession	03.01.2003	59.984.823.046.462.700
				yellow	cyan	yellow	cyan	right					0	52	52	59									right	11.631.231.304.008.900	7.477.683.623.388.320	None					pg	2	2019_Sep_26_1136	StressSession	03.01.2003	59.984.823.046.462.700
				black	cyan	black	cyan	right					0	53	53	104									right	0.7957103804969847	7.494.559.148.988.090	None					pg	2	2019_Sep_26_1136	StressSession	03.01.2003	59.984.823.046.462.700
				green	cyan	cyan	green	left					0	54	54	131									left	0.7437018693540267	7.507.797.449.473.080	None					pg	2	2019_Sep_26_1136	StressSession	03.01.2003	59.984.823.046.462.700
				purple	red	purple	red	right					0	55	55	73									right	0.796119126989197	7.520.636.266.395.190	None					pg	2	2019_Sep_26_1136	StressSession	03.01.2003	59.984.823.046.462.700
				magenta	cyan	cyan	magenta	left					0	56	56	140									left	0.8046464833510072	753.398.846.976.492	None					pg	2	2019_Sep_26_1136	StressSession	03.01.2003	59.984.823.046.462.700
				purple	black	purple	black	right					0	57	57	72									right	0.7308643281648983	7.547.449.477.354.890	None					pg	2	2019_Sep_26_1136	StressSession	03.01.2003	59.984.823.046.462.700
				white	orange	orange	white	left					0	58	58	207									left	0.760631995463882	7.560.112.396.752.040	None					pg	2	2019_Sep_26_1136	StressSession	03.01.2003	59.984.823.046.462.700
				magenta	purple	magenta	purple	right					0	59	59	33									right	2.504.841.171.267.790	7.573.151.030.122.220	None					pg	2	2019_Sep_26_1136	StressSession	03.01.2003	59.984.823.046.462.700
				red	black	red	black	right					0	60	60	9									left	10.992.328.109.937.200	760.352.696.596.183	None					pg	2	2019_Sep_26_1136	StressSession	03.01.2003	59.984.823.046.462.700
				green	red	green	red	right					0	61	61	28									right	11.917.827.448.396.500	7.619.877.512.585.590	None					pg	2	2019_Sep_26_1136	StressSession	03.01.2003	59.984.823.046.462.700
				magenta	yellow	yellow	magenta	left					0	62	62	141									left	0.6464423908510071	7.637.254.793.704.620	None					pg	2	2019_Sep_26_1136	StressSession	03.01.2003	59.984.823.046.462.700
				brown	orange	brown	orange	right					0	63	63	88									right	0.8132578930099044	7.649.025.715.615.690	None					pg	2	2019_Sep_26_1136	StressSession	03.01.2003	59.984.823.046.462.700
				black	blue	blue	black	left					0	64	64	211									left	0.8824538101530379	7.662.494.812.802.210	None					pg	2	2019_Sep_26_1136	StressSession	03.01.2003	59.984.823.046.462.700
				red	white	red	white	right					0	65	65	8									right	0.9557790055346231	7.676.639.864.900.320	None					pg	2	2019_Sep_26_1136	StressSession	03.01.2003	59.984.823.046.462.700
				orange	black	orange	black	right					0	66	66	63									right	0.7089106308644659	7.691.506.986.023.680	None					pg	2	2019_Sep_26_1136	StressSession	03.01.2003	59.984.823.046.462.700
				purple	brown	purple	brown	right					0	67	67	70									right	0.9320691489838282	7.703.998.091.094.140	None					pg	2	2019_Sep_26_1136	StressSession	03.01.2003	59.984.823.046.462.700
				green	brown	green	brown	right					0	68	68	25									right	0.8362270565430663	7.718.556.224.616.010	None					pg	2	2019_Sep_26_1136	StressSession	03.01.2003	59.984.823.046.462.700
				orange	black	black	orange	left					0	69	69	173									left	1.229.107.102.247.320	7.732.307.463.548.810	None					pg	2	2019_Sep_26_1136	StressSession	03.01.2003	59.984.823.046.462.700
				magenta	blue	magenta	blue	right					0	70	70	38									right	12.132.709.490.042.500	7.749.986.056.539.280	None					pg	2	2019_Sep_26_1136	StressSession	03.01.2003	59.984.823.046.462.700
				brown	purple	purple	brown	left					0	71	71	199									left	0.8753907731666004	7.767.441.302.425.040	None					pg	2	2019_Sep_26_1136	StressSession	03.01.2003	59.984.823.046.462.700
				white	magenta	white	magenta	right					0	72	72	94									right	0.9156966759692295	7.781.603.318.782.580	None					pg	2	2019_Sep_26_1136	StressSession	03.01.2003	59.984.823.046.462.700
				red	green	green	red	left					0	73	73	111									left	11.847.128.811.891.700	7.796.032.351.559.530	None					pg	2	2019_Sep_26_1136	StressSession	03.01.2003	59.984.823.046.462.700
				orange	red	orange	red	right					0	74	74	64									right	0.8831625031839394	7.813.202.345.300.330	None					pg	2	2019_Sep_26_1136	StressSession	03.01.2003	59.984.823.046.462.700
				yellow	magenta	yellow	magenta	right					0	75	75	58									right	11.242.038.936.729.800	7.827.433.084.828.550	None					pg	2	2019_Sep_26_1136	StressSession	03.01.2003	59.984.823.046.462.700
				brown	red	red	brown	left					0	76	76	192									left	14.735.771.846.071.600	7.844.019.889.484.840	None					pg	2	2019_Sep_26_1136	StressSession	03.01.2003	59.984.823.046.462.700
				yellow	blue	blue	yellow	left					0	77	77	166									left	0.8487706245246045	7.864.186.101.680.590	None					pg	2	2019_Sep_26_1136	StressSession	03.01.2003	59.984.823.046.462.700
				blue	brown	blue	brown	right					0	78	78	16									right	0.9161011557966958	7.877.913.054.757.090	None					pg	2	2019_Sep_26_1136	StressSession	03.01.2003	59.984.823.046.462.700
				purple	orange	orange	purple	left					0	79	79	189									left	10.000.447.999.809.600	7.892.516.564.259.600	None					pg	2	2019_Sep_26_1136	StressSession	03.01.2003	59.984.823.046.462.700
				orange	white	orange	white	right					0	80	80	62									right	0.7626151412841864	7.907.768.039.352.300	None					pg	2	2019_Sep_26_1136	StressSession	03.01.2003	59.984.823.046.462.700
				magenta	black	magenta	black	right					0	81	81	36									right	0.6951971433823019	792.084.194.524.077	None					pg	2	2019_Sep_26_1136	StressSession	03.01.2003	59.984.823.046.462.700
				orange	magenta	magenta	orange	left					0	82	82	177									left	10.605.281.875.082.200	7.933.110.159.739.660	None					pg	2	2019_Sep_26_1136	StressSession	03.01.2003	59.984.823.046.462.700
				yellow	magenta	magenta	yellow	left					0	83	83	168									left	0.8081357618621041	794.907.519.186.125	None					pg	2	2019_Sep_26_1136	StressSession	03.01.2003	59.984.823.046.462.700
				green	blue	blue	green	left					0	84	84	139									left	0.7523691723226875	796.243.554.029.417	None					pg	2	2019_Sep_26_1136	StressSession	03.01.2003	59.984.823.046.462.700
				blue	cyan	cyan	blue	left					0	85	85	122									left	0.830516552312929	7.975.252.328.425.670	None					pg	2	2019_Sep_26_1136	StressSession	03.01.2003	59.984.823.046.462.700
				orange	purple	orange	purple	right					0	86	86	60									right	0.9079778525961046	7.988.956.134.845.380	None					pg	2	2019_Sep_26_1136	StressSession	03.01.2003	59.984.823.046.462.700
				purple	brown	brown	purple	left					0	87	87	180									left	1.099.554.517.523.300	8.003.361.961.232.220	None					pg	2	2019_Sep_26_1136	StressSession	03.01.2003	59.984.823.046.462.700
				black	yellow	black	yellow	right					0	88	88	105									right	0.7115090297561437	8.019.718.779.853.320	None					pg	2	2019_Sep_26_1136	StressSession	03.01.2003	59.984.823.046.462.700
				cyan	purple	purple	cyan	left					0	89	89	152									left	0.895755137811193	8.032.201.023.060.890	None					pg	2	2019_Sep_26_1136	StressSession	03.01.2003	59.984.823.046.462.700
				red	yellow	red	yellow	right					0	90	90	4									right	0.8090129881543362	8.046.506.851.623.740	None					pg	2	2019_Sep_26_1136	StressSession	03.01.2003	59.984.823.046.462.700
				magenta	white	magenta	white	right					0	91	91	35									right	0.7230648648255737	8.060.089.237.295.250	None					pg	2	2019_Sep_26_1136	StressSession	03.01.2003	59.984.823.046.462.700
				orange	blue	orange	blue	right					0	92	92	65									right	0.6618352376167422	8.072.695.951.916.390	None					pg	2	2019_Sep_26_1136	StressSession	03.01.2003	59.984.823.046.462.700
				cyan	white	white	cyan	left					0	93	93	154									left	0.7622674080994329	8.084.656.185.746.690	None					pg	2	2019_Sep_26_1136	StressSession	03.01.2003	59.984.823.046.462.700
				yellow	brown	yellow	brown	right					0	94	94	52									right	0.7070789516465084	8.097.685.274.587.610	None					pg	2	2019_Sep_26_1136	StressSession	03.01.2003	59.984.823.046.462.700
				orange	green	orange	green	right					0	95	95	66									right	0.73794656514292	8.110.174.416.992.240	None					pg	2	2019_Sep_26_1136	StressSession	03.01.2003	59.984.823.046.462.700
				yellow	orange	yellow	orange	right					0	96	96	50									left	0.7920875553759288	8.122.997.775.787.610	None					pg	2	2019_Sep_26_1136	StressSession	03.01.2003	59.984.823.046.462.700
				red	blue	red	blue	right					0	97	97	0									right	0.9068766263994803	813.624.705.866.792	None					pg	2	2019_Sep_26_1136	StressSession	03.01.2003	59.984.823.046.462.700
				brown	white	brown	white	right					0	98	98	80									right	0.9257007250344031	8.150.619.762.935.560	None					pg	2	2019_Sep_26_1136	StressSession	03.01.2003	59.984.823.046.462.700
				red	black	black	red	left					0	99	99	119									left	0.7445560556557211	8.165.228.725.235.740	None					pg	2	2019_Sep_26_1136	StressSession	03.01.2003	59.984.823.046.462.700
				red	brown	brown	red	left					0	100	100	117									left	0.7822686795657319	8.177.973.244.598.080	None					pg	2	2019_Sep_26_1136	StressSession	03.01.2003	59.984.823.046.462.700
				cyan	magenta	cyan	magenta	right					0	101	101	49									right	10.147.942.336.880.000	8.191.086.463.536.440	None					pg	2	2019_Sep_26_1136	StressSession	03.01.2003	59.984.823.046.462.700
				green	magenta	green	magenta	right					0	102	102	20									right	0.7583292764461476	82.065.327.332.127	None					pg	2	2019_Sep_26_1136	StressSession	03.01.2003	59.984.823.046.462.700
				magenta	cyan	magenta	cyan	right					0	103	103	30									right	0.9234445126635364	8.219.599.279.104.300	None					pg	2	2019_Sep_26_1136	StressSession	03.01.2003	59.984.823.046.462.700
				blue	black	blue	black	right					0	104	104	18									right	0.7761161488569996	8.234.192.467.544.540	None					pg	2	2019_Sep_26_1136	StressSession	03.01.2003	59.984.823.046.462.700
				yellow	green	green	yellow	left					0	105	105	167									left	0.8880730077557928	8.247.393.763.245.320	None					pg	2	2019_Sep_26_1136	StressSession	03.01.2003	59.984.823.046.462.700
				purple	white	purple	white	right					0	106	106	71									right	0.6461590843055092	8.261.738.601.924.860	None					pg	2	2019_Sep_26_1136	StressSession	03.01.2003	59.984.823.046.462.700
				black	yellow	yellow	black	left					0	107	107	215									left	0.7656483133237089	827.350.306.410.536	None					pg	2	2019_Sep_26_1136	StressSession	03.01.2003	59.984.823.046.462.700
				green	cyan	green	cyan	right					0	108	108	21									right	0.8258701542954441	8.286.495.724.161.820	None					pg	2	2019_Sep_26_1136	StressSession	03.01.2003	59.984.823.046.462.700
				white	purple	purple	white	left					0	109	109	208									left	0.8435994267310889	8.300.159.406.865.320	None					pg	2	2019_Sep_26_1136	StressSession	03.01.2003	59.984.823.046.462.700
				magenta	red	magenta	red	right					0	110	110	37									right	0.7547636246340517	8.314.006.462.290.570	None					pg	2	2019_Sep_26_1136	StressSession	03.01.2003	59.984.823.046.462.700
				brown	purple	brown	purple	right					0	111	111	89									right	11.071.585.676.127.100	8.326.965.040.228.240	None					pg	2	2019_Sep_26_1136	StressSession	03.01.2003	59.984.823.046.462.700
				yellow	green	yellow	green	right					0	112	112	57									right	0.74403424254524	834.347.776.278.282	None					pg	2	2019_Sep_26_1136	StressSession	03.01.2003	59.984.823.046.462.700
				purple	black	black	purple	left					0	113	113	182									left	0.7029667400674953	8.356.285.420.251.550	None					pg	2	2019_Sep_26_1136	StressSession	03.01.2003	59.984.823.046.462.700
				red	yellow	yellow	red	left					0	114	114	114									left	0.7550012778660857	8.368.569.237.943.790	None					pg	2	2019_Sep_26_1136	StressSession	03.01.2003	59.984.823.046.462.700
				yellow	black	black	yellow	left					0	115	115	164									left	0.7318951543916228	8.381.439.845.785.660	None					pg	2	2019_Sep_26_1136	StressSession	03.01.2003	59.984.823.046.462.700
				magenta	red	red	magenta	left					0	116	116	147									left	0.7543779181319223	839.409.115.985.444	None					pg	2	2019_Sep_26_1136	StressSession	03.01.2003	59.984.823.046.462.700
				white	green	white	green	right					0	117	117	93									right	0.9613081765087372	8.407.064.956.985.620	None					pg	2	2019_Sep_26_1136	StressSession	03.01.2003	59.984.823.046.462.700
				purple	orange	purple	orange	right					0	118	118	79									right	0.8189624239093973	8.422.086.424.709.790	None					pg	2	2019_Sep_26_1136	StressSession	03.01.2003	59.984.823.046.462.700
				red	white	white	red	left					0	119	119	118									left	0.7386561115067707	8.435.688.949.039.380	None					pg	2	2019_Sep_26_1136	StressSession	03.01.2003	59.984.823.046.462.700
				magenta	brown	brown	magenta	left					0	120	120	144									left	0.8596514732153082	8.448.402.658.814.860	None					pg	2	2019_Sep_26_1136	StressSession	03.01.2003	59.984.823.046.462.700
				red	magenta	red	magenta	right					0	121	121	2									right	0.8015510180052843	8.462.258.934.502.850	None					pg	2	2019_Sep_26_1136	StressSession	03.01.2003	59.984.823.046.462.700
				cyan	magenta	magenta	cyan	left					0	122	122	159									left	0.7281136093383793	847.571.660.982.758	None					pg	2	2019_Sep_26_1136	StressSession	03.01.2003	59.984.823.046.462.700
				purple	green	green	purple	left					0	123	123	185									left	0.7112794831873543	8.488.365.790.563.920	None					pg	2	2019_Sep_26_1136	StressSession	03.01.2003	59.984.823.046.462.700
				yellow	white	white	yellow	left					0	124	124	163									left	0.8372467894409965	8.500.861.072.699.270	None					pg	2	2019_Sep_26_1136	StressSession	03.01.2003	59.984.823.046.462.700
				red	cyan	red	cyan	right					0	125	125	3									right	0.7919151821160995	8.514.594.707.372.920	None					pg	2	2019_Sep_26_1136	StressSession	03.01.2003	59.984.823.046.462.700
				cyan	purple	cyan	purple	right					0	126	126	42									right	0.7844702786260314	8.527.794.671.874.270	None					pg	2	2019_Sep_26_1136	StressSession	03.01.2003	59.984.823.046.462.700
				green	red	red	green	left					0	127	127	138									left	0.7095041239449529	8.541.019.255.031.780	None					pg	2	2019_Sep_26_1136	StressSession	03.01.2003	59.984.823.046.462.700
				black	white	black	white	right					0	128	128	109									right	0.7158179345842655	8.553.441.543.064.940	None					pg	2	2019_Sep_26_1136	StressSession	03.01.2003	59.984.823.046.462.700
				black	green	black	green	right					0	129	129	102									right	0.9420753313811474	8.565.814.999.118.930	None					pg	2	2019_Sep_26_1136	StressSession	03.01.2003	59.984.823.046.462.700
				white	black	black	white	left					0	130	130	200									left	0.6574316128294413	8.580.505.057.917.840	None					pg	2	2019_Sep_26_1136	StressSession	03.01.2003	59.984.823.046.462.700
				brown	magenta	magenta	brown	left					0	131	131	195									left	0.8874010080421613	8.592.439.913.625.630	None					pg	2	2019_Sep_26_1136	StressSession	03.01.2003	59.984.823.046.462.700
				black	magenta	magenta	black	left					0	132	132	213									left	0.650648042390003	8.606.647.344.363.790	None					pg	2	2019_Sep_26_1136	StressSession	03.01.2003	59.984.823.046.462.700
				white	yellow	white	yellow	right					0	133	133	96									right	0.7556852242410059	8.618.557.082.215.640	None					pg	2	2019_Sep_26_1136	StressSession	03.01.2003	59.984.823.046.462.700
				blue	cyan	blue	cyan	right					0	134	134	12									right	0.7153733481072777	8.631.525.430.815.810	None					pg	2	2019_Sep_26_1136	StressSession	03.01.2003	59.984.823.046.462.700
				cyan	blue	blue	cyan	left					0	135	135	157									left	0.8837811695866549	8.643.915.752.995.940	None					pg	2	2019_Sep_26_1136	StressSession	03.01.2003	59.984.823.046.462.700
				blue	white	blue	white	right					0	136	136	17									right	0.6733786993586364	865.810.180.774.323	None					pg	2	2019_Sep_26_1136	StressSession	03.01.2003	59.984.823.046.462.700
				orange	white	white	orange	left					0	137	137	172									left	0.8230349555051362	8.670.203.464.446.520	None					pg	2	2019_Sep_26_1136	StressSession	03.01.2003	59.984.823.046.462.700
				cyan	orange	orange	cyan	left					0	138	138	151									left	0.8921459660177788	8.683.834.366.364.000	None					pg	2	2019_Sep_26_1136	StressSession	03.01.2003	59.984.823.046.462.700
				blue	red	blue	red	right					0	139	139	19									right	0.9354927208564732	8.698.124.758.133.430	None					pg	2	2019_Sep_26_1136	StressSession	03.01.2003	59.984.823.046.462.700
				orange	yellow	orange	yellow	right					0	140	140	69									right	10.031.214.920.018.100	8.712.886.193.968.550	None					pg	2	2019_Sep_26_1136	StressSession	03.01.2003	59.984.823.046.462.700
				magenta	black	black	magenta	left					0	141	141	146									left	0.6962744762563489	8.728.751.194.132.820	None					pg	2	2019_Sep_26_1136	StressSession	03.01.2003	59.984.823.046.462.700
				magenta	orange	orange	magenta	left					0	142	142	142									left	0.8369732962246417	8.741.026.269.428.790	None					pg	2	2019_Sep_26_1136	StressSession	03.01.2003	59.984.823.046.462.700
				cyan	green	cyan	green	right					0	143	143	48									right	0.8229560222052896	8.754.766.261.433.060	None					pg	2	2019_Sep_26_1136	StressSession	03.01.2003	59.984.823.046.462.700
				brown	orange	orange	brown	left					0	144	144	198									left	0.9435882907355335	8.768.442.957.464.330	None					pg	2	2019_Sep_26_1136	StressSession	03.01.2003	59.984.823.046.462.700
				white	red	white	red	right					0	145	145	91									right	0.8396130817650374	8.783.239.857.817.650	None					pg	2	2019_Sep_26_1136	StressSession	03.01.2003	59.984.823.046.462.700
				blue	brown	brown	blue	left					0	146	146	126									left	0.8818385570821192	8.796.899.593.856.170	None					pg	2	2019_Sep_26_1136	StressSession	03.01.2003	59.984.823.046.462.700
				purple	yellow	yellow	purple	left					0	147	147	188									left	0.6794586967644136	881.108.431.313.736	None					pg	2	2019_Sep_26_1136	StressSession	03.01.2003	59.984.823.046.462.700
				white	magenta	magenta	white	left					0	148	148	204									left	0.7509330129350928	8.823.247.205.014.520	None					pg	2	2019_Sep_26_1136	StressSession	03.01.2003	59.984.823.046.462.700
				cyan	white	cyan	white	right					0	149	149	44									right	0.7599164757689323	883.595.896.919.084	None					pg	2	2019_Sep_26_1136	StressSession	03.01.2003	59.984.823.046.462.700
				black	white	white	black	left					0	150	150	219									left	0.7655992466775388	8.848.863.369.018.290	None					pg	2	2019_Sep_26_1136	StressSession	03.01.2003	59.984.823.046.462.700
				orange	blue	blue	orange	left					0	151	151	175									left	0.711240656537484	8.861.886.463.195.100	None					pg	2	2019_Sep_26_1136	StressSession	03.01.2003	59.984.823.046.462.700
				cyan	orange	cyan	orange	right					0	152	152	41									right	0.8574763274768884	8.874.261.510.715.080	None					pg	2	2019_Sep_26_1136	StressSession	03.01.2003	59.984.823.046.462.700
				yellow	purple	purple	yellow	left					0	153	153	161									left	0.8879151411560997	8.888.197.150.635.880	None					pg	2	2019_Sep_26_1136	StressSession	03.01.2003	59.984.823.046.462.700
				brown	white	white	brown	left					0	154	154	190									left	0.6880846130839018	8.902.513.142.394.390	None					pg	2	2019_Sep_26_1136	StressSession	03.01.2003	59.984.823.046.462.700
				blue	purple	blue	purple	right					0	155	155	15									right	0.6731235528004618	891.482.293.980.888	None					pg	2	2019_Sep_26_1136	StressSession	03.01.2003	59.984.823.046.462.700
				green	yellow	yellow	green	left					0	156	156	132									left	0.6501198292821755	8.926.979.627.955.350	None					pg	2	2019_Sep_26_1136	StressSession	03.01.2003	59.984.823.046.462.700
				yellow	red	red	yellow	left					0	157	157	165									left	0.6992389549914151	8.938.809.463.974.620	None					pg	2	2019_Sep_26_1136	StressSession	03.01.2003	59.984.823.046.462.700
				yellow	orange	orange	yellow	left					0	158	158	160									left	0.8133116529870676	8.951.022.339.830.460	None					pg	2	2019_Sep_26_1136	StressSession	03.01.2003	59.984.823.046.462.700
				brown	blue	brown	blue	right					0	159	159	83									right	0.8164348516543214	8.964.434.195.441.410	None					pg	2	2019_Sep_26_1136	StressSession	03.01.2003	59.984.823.046.462.700
				black	magenta	black	magenta	right					0	160	160	103									right	0.889386287195066	8.977.940.071.278.900	None					pg	2	2019_Sep_26_1136	StressSession	03.01.2003	59.984.823.046.462.700
				green	black	black	green	left					0	161	161	137									left	0.7669240461123081	899.221.008.545.703	None					pg	2	2019_Sep_26_1136	StressSession	03.01.2003	59.984.823.046.462.700
				green	purple	purple	green	left					0	162	162	134									left	0.7460728550090607	9.005.138.596.207.530	None					pg	2	2019_Sep_26_1136	StressSession	03.01.2003	59.984.823.046.462.700
				magenta	brown	magenta	brown	right					0	163	163	34									right	0.7927203017725333	9.017.951.476.074.030	None					pg	2	2019_Sep_26_1136	StressSession	03.01.2003	59.984.823.046.462.700
				cyan	yellow	yellow	cyan	left					0	164	164	150									left	0.6577196127063871	9.031.216.677.880.880	None					pg	2	2019_Sep_26_1136	StressSession	03.01.2003	59.984.823.046.462.700
				green	orange	green	orange	right					0	165	165	23									right	0.7759885755781397	9.043.239.657.284.410	None					pg	2	2019_Sep_26_1136	StressSession	03.01.2003	59.984.823.046.462.700
				black	red	red	black	left					0	166	166	210									left	0.6018399565482468	9.056.340.106.094.880	None					pg	2	2019_Sep_26_1136	StressSession	03.01.2003	59.984.823.046.462.700
				purple	magenta	purple	magenta	right					0	167	167	76									right	0.7987542191981447	9.067.730.804.168.180	None					pg	2	2019_Sep_26_1136	StressSession	03.01.2003	59.984.823.046.462.700
				orange	cyan	orange	cyan	right					0	168	168	68									right	0.7230964381456033	9.081.043.404.354.810	None					pg	2	2019_Sep_26_1136	StressSession	03.01.2003	59.984.823.046.462.700
				white	blue	white	blue	right					0	169	169	92									right	0.7729912435233928	9.093.664.344.036.540	None					pg	2	2019_Sep_26_1136	StressSession	03.01.2003	59.984.823.046.462.700
				orange	purple	purple	orange	left					0	170	170	170									left	0.8183164508513983	910.689.036.506.011	None					pg	2	2019_Sep_26_1136	StressSession	03.01.2003	59.984.823.046.462.700
				yellow	black	yellow	black	right					0	171	171	54									right	0.6338186095708807	9.120.500.812.586.320	None					pg	2	2019_Sep_26_1136	StressSession	03.01.2003	59.984.823.046.462.700
				purple	cyan	cyan	purple	left					0	172	172	187									left	0.6605624914932378	9.132.152.741.481.490	None					pg	2	2019_Sep_26_1136	StressSession	03.01.2003	59.984.823.046.462.700
				black	purple	black	purple	right					0	173	173	107									right	0.6640820633247131	9.144.034.810.011.810	None					pg	2	2019_Sep_26_1136	StressSession	03.01.2003	59.984.823.046.462.700
				yellow	blue	yellow	blue	right					0	174	174	56									right	0.6779884040583966	9.155.978.437.982.530	None					pg	2	2019_Sep_26_1136	StressSession	03.01.2003	59.984.823.046.462.700
				white	brown	white	brown	right					0	175	175	99									right	0.7692455384553796	9.168.105.912.274.810	None					pg	2	2019_Sep_26_1136	StressSession	03.01.2003	59.984.823.046.462.700
				green	yellow	green	yellow	right					0	176	176	22									right	0.6529571614050838	9.181.105.288.061.740	None					pg	2	2019_Sep_26_1136	StressSession	03.01.2003	59.984.823.046.462.700
				black	green	green	black	left					0	177	177	212									left	0.8245978348381868	9.192.831.648.925.160	None					pg	2	2019_Sep_26_1136	StressSession	03.01.2003	59.984.823.046.462.700
				magenta	orange	magenta	orange	right					0	178	178	32									right	0.8925935391598614	9.206.471.835.105.350	None					pg	2	2019_Sep_26_1136	StressSession	03.01.2003	59.984.823.046.462.700
				magenta	white	white	magenta	left					0	179	179	145									left	0.6620178508724166	9.220.694.101.037.180	None					pg	2	2019_Sep_26_1136	StressSession	03.01.2003	59.984.823.046.462.700
				blue	orange	orange	blue	left					0	180	180	124									left	0.7478674142430464	9.232.720.549.239.230	None					pg	2	2019_Sep_26_1136	StressSession	03.01.2003	59.984.823.046.462.700
				red	orange	red	orange	right					0	181	181	5									right	0.675671605046773	9.245.519.289.378.430	None					pg	2	2019_Sep_26_1136	StressSession	03.01.2003	59.984.823.046.462.700
				brown	black	brown	black	right					0	182	182	81									right	0.6406802599763068	9.257.706.680.445.150	None					pg	2	2019_Sep_26_1136	StressSession	03.01.2003	59.984.823.046.462.700
				yellow	brown	brown	yellow	left					0	183	183	162									left	0.8548924352458016	9.269.489.689.817.730	None					pg	2	2019_Sep_26_1136	StressSession	03.01.2003	59.984.823.046.462.700
				red	purple	purple	red	left					0	184	184	116									left	0.671645580097902	9.283.321.666.849.420	None					pg	2	2019_Sep_26_1136	StressSession	03.01.2003	59.984.823.046.462.700
				brown	cyan	brown	cyan	right					0	185	185	86									right	0.7584931163760302	9.295.328.420.126.540	None					pg	2	2019_Sep_26_1136	StressSession	03.01.2003	59.984.823.046.462.700
				red	magenta	magenta	red	left					0	186	186	112									left	0.9073041462165747	930.832.102.898.303	None					pg	2	2019_Sep_26_1136	StressSession	03.01.2003	59.984.823.046.462.700
				blue	magenta	magenta	blue	left					0	187	187	121									left	0.9802615550884184	9.322.794.520.407.670	None					pg	2	2019_Sep_26_1136	StressSession	03.01.2003	59.984.823.046.462.700
				cyan	red	red	cyan	left					0	188	188	156									left	0.7283922225524293	933.795.011.500.795	None					pg	2	2019_Sep_26_1136	StressSession	03.01.2003	59.984.823.046.462.700
				cyan	yellow	cyan	yellow	right					0	189	189	40									right	0.7099819904074138	9.350.538.043.503.760	None					pg	2	2019_Sep_26_1136	StressSession	03.01.2003	59.984.823.046.462.700
				red	orange	orange	red	left					0	190	190	115									left	0.7500741333019505	9.362.934.245.148.050	None					pg	2	2019_Sep_26_1136	StressSession	03.01.2003	59.984.823.046.462.700
				orange	cyan	cyan	orange	left					0	191	191	178									left	0.784938331759804	9.375.787.590.063.960	None					pg	2	2019_Sep_26_1136	StressSession	03.01.2003	59.984.823.046.462.700
				brown	magenta	brown	magenta	right					0	192	192	85									right	0.7484327473353005	9.388.955.400.979.020	None					pg	2	2019_Sep_26_1136	StressSession	03.01.2003	59.984.823.046.462.700
				green	brown	brown	green	left					0	193	193	135									left	18.196.459.436.176.100	9.401.682.269.148.890	None					pg	2	2019_Sep_26_1136	StressSession	03.01.2003	59.984.823.046.462.700
				blue	orange	blue	orange	right					0	194	194	14									right	0.7287391024046883	9.425.231.204.168.010	None					pg	2	2019_Sep_26_1136	StressSession	03.01.2003	59.984.823.046.462.700
				purple	red	red	purple	left					0	195	195	183									left	0.7733888966877203	9.437.899.985.962.670	None					pg	2	2019_Sep_26_1136	StressSession	03.01.2003	59.984.823.046.462.700
				cyan	black	black	cyan	left					0	196	196	155									left	0.6623877707147585	9.451.011.225.168.540	None					pg	2	2019_Sep_26_1136	StressSession	03.01.2003	59.984.823.046.462.700
				black	red	black	red	right					0	197	197	100									right	0.7017195939329213	9.462.937.509.146.660	None					pg	2	2019_Sep_26_1136	StressSession	03.01.2003	59.984.823.046.462.700
				cyan	red	cyan	red	right					0	198	198	46									right	0.7415233102838101	947.526.392.095.406	None					pg	2	2019_Sep_26_1136	StressSession	03.01.2003	59.984.823.046.462.700
				red	cyan	cyan	red	left					0	199	199	113									left	0.6705417939019753	9.487.888.372.100.960	None					pg	2	2019_Sep_26_1136	StressSession	03.01.2003	59.984.823.046.462.700
				green	magenta	magenta	green	left					0	200	200	130									left	1.025.487.775.792.040	9.500.022.830.923.590	None					pg	2	2019_Sep_26_1136	StressSession	03.01.2003	59.984.823.046.462.700
				brown	blue	blue	brown	left					0	201	201	193									left	0.6949415701583348	9.515.644.208.791.800	None					pg	2	2019_Sep_26_1136	StressSession	03.01.2003	59.984.823.046.462.700
				purple	green	purple	green	right					0	202	202	75									right	0.6993110616272133	9.528.005.965.650.780	None					pg	2	2019_Sep_26_1136	StressSession	03.01.2003	59.984.823.046.462.700
				orange	red	red	orange	left					0	203	203	174									left	0.7158763878924219	9.540.320.328.396.650	None					pg	2	2019_Sep_26_1136	StressSession	03.01.2003	59.984.823.046.462.700
				blue	red	red	blue	left					0	204	204	129									left	0.6730365128378253	9.552.749.212.693.660	None					pg	2	2019_Sep_26_1136	StressSession	03.01.2003	59.984.823.046.462.700
				purple	cyan	purple	cyan	right					0	205	205	77									right	0.7555610642939428	9.564.798.146.219.450	None					pg	2	2019_Sep_26_1136	StressSession	03.01.2003	59.984.823.046.462.700
				orange	brown	orange	brown	right					0	206	206	61									right	130.442.653.677.801	957.778.923.614.326	None					pg	2	2019_Sep_26_1136	StressSession	03.01.2003	59.984.823.046.462.700
				blue	purple	purple	blue	left					0	207	207	125									left	10.258.875.622.880.600	9.596.255.101.331.150	None					pg	2	2019_Sep_26_1136	StressSession	03.01.2003	59.984.823.046.462.700
				black	brown	brown	black	left					0	208	208	218									left	0.9192755544422653	9.611.889.360.260.540	None					pg	2	2019_Sep_26_1136	StressSession	03.01.2003	59.984.823.046.462.700
				magenta	yellow	magenta	yellow	right					0	209	209	31									right	0.7431817629089892	962.644.575.724.981	None					pg	2	2019_Sep_26_1136	StressSession	03.01.2003	59.984.823.046.462.700
				green	white	white	green	left					0	210	210	136									left	0.7755077224501292	963.923.958.219.111	None					pg	2	2019_Sep_26_1136	StressSession	03.01.2003	59.984.823.046.462.700
				yellow	purple	yellow	purple	right					0	211	211	51									right	0.7312504613332749	9.652.407.056.039.650	None					pg	2	2019_Sep_26_1136	StressSession	03.01.2003	59.984.823.046.462.700
				green	orange	orange	green	left					0	212	212	133									left	0.6983847686892659	9.665.055.221.309.770	None					pg	2	2019_Sep_26_1136	StressSession	03.01.2003	59.984.823.046.462.700
				black	orange	black	orange	right					0	213	213	106									right	0.7540732782622399	9.677.374.558.986.850	None					pg	2	2019_Sep_26_1136	StressSession	03.01.2003	59.984.823.046.462.700
				blue	green	blue	green	right					0	214	214	10									right	0.6902345855000931	9.690.332.868.124.640	None					pg	2	2019_Sep_26_1136	StressSession	03.01.2003	59.984.823.046.462.700
				orange	magenta	orange	magenta	right					0	215	215	67									right	0.8051798164569846	9.702.702.829.780.120	None					pg	2	2019_Sep_26_1136	StressSession	03.01.2003	59.984.823.046.462.700
				white	red	red	white	left					0	216	216	201									left	0.6931137309384212	9.716.143.370.178.830	None					pg	2	2019_Sep_26_1136	StressSession	03.01.2003	59.984.823.046.462.700
				magenta	green	green	magenta	left					0	217	217	149									left	0.8708352551102507	972.852.691.262.852	None					pg	2	2019_Sep_26_1136	StressSession	03.01.2003	59.984.823.046.462.700
				blue	yellow	blue	yellow	right					0	218	218	13									right	0.7761417488463849	9.742.672.259.126.500	None					pg	2	2019_Sep_26_1136	StressSession	03.01.2003	59.984.823.046.462.700
				magenta	purple	purple	magenta	left					0	219	219	143									left	10.821.934.582.641.000	9.755.853.902.569.000	None					pg	2	2019_Sep_26_1136	StressSession	03.01.2003	59.984.823.046.462.700
																				3	9.528								2019-09-26_11:52:45				pg	2	2019_Sep_26_1136	StressSession	03.01.2003	59.984.823.046.462.700
																						3	6.222										pg	2	2019_Sep_26_1136	StressSession	03.01.2003	59.984.823.046.462.700
																				2	7.754									2019-09-26_11:53:43	2019-09-26_11:58:43		pg	2	2019_Sep_26_1136	StressSession	03.01.2003	59.984.823.046.462.700
																																2019-09-26_11:58:53						
