Tick,Color,Tone,TimeDur,WordItem,WordColor,AnsLeft,AnsRight,AnsCorr,tick.thisRepN,tick.thisTrialN,tick.thisN,tick.thisIndex,stroop_trials.thisRepN,stroop_trials.thisTrialN,stroop_trials.thisN,stroop_trials.thisIndex,start_session_two,start_stress_one,end_stress_one,rating_evaluation_one.response,rating_evaluation_one.rt,rating_evaluation_two.response,rating_evaluation_two.rt,start_stress_two,key_resp_part_two_meas.keys,key_resp_part_two_meas.rt,key_resp_part_two_meas.started,key_resp_part_two_meas.stopped,end_stress_two,start_cooldown_measurement,end_cooldown_measurement,end_session_two,participant,session,date,expName,psychopyVersion,frameRate,
1,green,440,1.0,,,,,,0,0,0,0,,,,,2019-09-28_09:31:52,2019-09-28_09:33:11,,,,,,,,,,,,,,,lb,002,2019_Sep_28_0931,StressSession,3.2.3,60.21781990231347,
2,green,440,1.0,,,,,,0,1,1,1,,,,,,,,,,,,,,,,,,,,,lb,002,2019_Sep_28_0931,StressSession,3.2.3,60.21781990231347,
3,green,440,1.0,,,,,,0,2,2,2,,,,,,,,,,,,,,,,,,,,,lb,002,2019_Sep_28_0931,StressSession,3.2.3,60.21781990231347,
4,green,440,1.0,,,,,,0,3,3,3,,,,,,,,,,,,,,,,,,,,,lb,002,2019_Sep_28_0931,StressSession,3.2.3,60.21781990231347,
5,green,440,1.0,,,,,,0,4,4,4,,,,,,,,,,,,,,,,,,,,,lb,002,2019_Sep_28_0931,StressSession,3.2.3,60.21781990231347,
6,green,440,1.0,,,,,,0,5,5,5,,,,,,,,,,,,,,,,,,,,,lb,002,2019_Sep_28_0931,StressSession,3.2.3,60.21781990231347,
7,green,440,1.0,,,,,,0,6,6,6,,,,,,,,,,,,,,,,,,,,,lb,002,2019_Sep_28_0931,StressSession,3.2.3,60.21781990231347,
8,green,440,1.0,,,,,,0,7,7,7,,,,,,,,,,,,,,,,,,,,,lb,002,2019_Sep_28_0931,StressSession,3.2.3,60.21781990231347,
9,green,440,1.0,,,,,,0,8,8,8,,,,,,,,,,,,,,,,,,,,,lb,002,2019_Sep_28_0931,StressSession,3.2.3,60.21781990231347,
10,green,440,1.0,,,,,,0,9,9,9,,,,,,,,,,,,,,,,,,,,,lb,002,2019_Sep_28_0931,StressSession,3.2.3,60.21781990231347,
11,green,440,1.0,,,,,,0,10,10,10,,,,,,,,,,,,,,,,,,,,,lb,002,2019_Sep_28_0931,StressSession,3.2.3,60.21781990231347,
12,green,440,1.0,,,,,,0,11,11,11,,,,,,,,,,,,,,,,,,,,,lb,002,2019_Sep_28_0931,StressSession,3.2.3,60.21781990231347,
13,green,440,1.0,,,,,,0,12,12,12,,,,,,,,,,,,,,,,,,,,,lb,002,2019_Sep_28_0931,StressSession,3.2.3,60.21781990231347,
14,green,440,1.0,,,,,,0,13,13,13,,,,,,,,,,,,,,,,,,,,,lb,002,2019_Sep_28_0931,StressSession,3.2.3,60.21781990231347,
15,green,440,1.0,,,,,,0,14,14,14,,,,,,,,,,,,,,,,,,,,,lb,002,2019_Sep_28_0931,StressSession,3.2.3,60.21781990231347,
16,green,440,1.0,,,,,,0,15,15,15,,,,,,,,,,,,,,,,,,,,,lb,002,2019_Sep_28_0931,StressSession,3.2.3,60.21781990231347,
17,green,440,1.0,,,,,,0,16,16,16,,,,,,,,,,,,,,,,,,,,,lb,002,2019_Sep_28_0931,StressSession,3.2.3,60.21781990231347,
18,green,440,1.0,,,,,,0,17,17,17,,,,,,,,,,,,,,,,,,,,,lb,002,2019_Sep_28_0931,StressSession,3.2.3,60.21781990231347,
19,green,440,1.0,,,,,,0,18,18,18,,,,,,,,,,,,,,,,,,,,,lb,002,2019_Sep_28_0931,StressSession,3.2.3,60.21781990231347,
20,green,440,1.0,,,,,,0,19,19,19,,,,,,,,,,,,,,,,,,,,,lb,002,2019_Sep_28_0931,StressSession,3.2.3,60.21781990231347,
21,green,440,1.0,,,,,,0,20,20,20,,,,,,,,,,,,,,,,,,,,,lb,002,2019_Sep_28_0931,StressSession,3.2.3,60.21781990231347,
22,green,440,1.0,,,,,,0,21,21,21,,,,,,,,,,,,,,,,,,,,,lb,002,2019_Sep_28_0931,StressSession,3.2.3,60.21781990231347,
23,green,440,1.0,,,,,,0,22,22,22,,,,,,,,,,,,,,,,,,,,,lb,002,2019_Sep_28_0931,StressSession,3.2.3,60.21781990231347,
24,green,440,1.0,,,,,,0,23,23,23,,,,,,,,,,,,,,,,,,,,,lb,002,2019_Sep_28_0931,StressSession,3.2.3,60.21781990231347,
25,green,440,1.0,,,,,,0,24,24,24,,,,,,,,,,,,,,,,,,,,,lb,002,2019_Sep_28_0931,StressSession,3.2.3,60.21781990231347,
26,green,440,1.0,,,,,,0,25,25,25,,,,,,,,,,,,,,,,,,,,,lb,002,2019_Sep_28_0931,StressSession,3.2.3,60.21781990231347,
27,green,440,1.0,,,,,,0,26,26,26,,,,,,,,,,,,,,,,,,,,,lb,002,2019_Sep_28_0931,StressSession,3.2.3,60.21781990231347,
28,green,440,1.0,,,,,,0,27,27,27,,,,,,,,,,,,,,,,,,,,,lb,002,2019_Sep_28_0931,StressSession,3.2.3,60.21781990231347,
29,green,440,1.0,,,,,,0,28,28,28,,,,,,,,,,,,,,,,,,,,,lb,002,2019_Sep_28_0931,StressSession,3.2.3,60.21781990231347,
30,green,440,1.0,,,,,,0,29,29,29,,,,,,,,,,,,,,,,,,,,,lb,002,2019_Sep_28_0931,StressSession,3.2.3,60.21781990231347,
31,green,440,1.0,,,,,,0,30,30,30,,,,,,,,,,,,,,,,,,,,,lb,002,2019_Sep_28_0931,StressSession,3.2.3,60.21781990231347,
32,green,440,1.0,,,,,,0,31,31,31,,,,,,,,,,,,,,,,,,,,,lb,002,2019_Sep_28_0931,StressSession,3.2.3,60.21781990231347,
33,green,440,1.0,,,,,,0,32,32,32,,,,,,,,,,,,,,,,,,,,,lb,002,2019_Sep_28_0931,StressSession,3.2.3,60.21781990231347,
34,green,440,1.0,,,,,,0,33,33,33,,,,,,,,,,,,,,,,,,,,,lb,002,2019_Sep_28_0931,StressSession,3.2.3,60.21781990231347,
35,green,440,1.0,,,,,,0,34,34,34,,,,,,,,,,,,,,,,,,,,,lb,002,2019_Sep_28_0931,StressSession,3.2.3,60.21781990231347,
36,green,440,1.0,,,,,,0,35,35,35,,,,,,,,,,,,,,,,,,,,,lb,002,2019_Sep_28_0931,StressSession,3.2.3,60.21781990231347,
37,green,440,1.0,,,,,,0,36,36,36,,,,,,,,,,,,,,,,,,,,,lb,002,2019_Sep_28_0931,StressSession,3.2.3,60.21781990231347,
38,green,440,1.0,,,,,,0,37,37,37,,,,,,,,,,,,,,,,,,,,,lb,002,2019_Sep_28_0931,StressSession,3.2.3,60.21781990231347,
39,green,440,1.0,,,,,,0,38,38,38,,,,,,,,,,,,,,,,,,,,,lb,002,2019_Sep_28_0931,StressSession,3.2.3,60.21781990231347,
40,green,440,1.0,,,,,,0,39,39,39,,,,,,,,,,,,,,,,,,,,,lb,002,2019_Sep_28_0931,StressSession,3.2.3,60.21781990231347,
41,green,440,1.0,,,,,,0,40,40,40,,,,,,,,,,,,,,,,,,,,,lb,002,2019_Sep_28_0931,StressSession,3.2.3,60.21781990231347,
42,green,440,1.0,,,,,,0,41,41,41,,,,,,,,,,,,,,,,,,,,,lb,002,2019_Sep_28_0931,StressSession,3.2.3,60.21781990231347,
43,green,440,1.0,,,,,,0,42,42,42,,,,,,,,,,,,,,,,,,,,,lb,002,2019_Sep_28_0931,StressSession,3.2.3,60.21781990231347,
44,green,440,1.0,,,,,,0,43,43,43,,,,,,,,,,,,,,,,,,,,,lb,002,2019_Sep_28_0931,StressSession,3.2.3,60.21781990231347,
45,green,440,1.0,,,,,,0,44,44,44,,,,,,,,,,,,,,,,,,,,,lb,002,2019_Sep_28_0931,StressSession,3.2.3,60.21781990231347,
46,green,440,1.0,,,,,,0,45,45,45,,,,,,,,,,,,,,,,,,,,,lb,002,2019_Sep_28_0931,StressSession,3.2.3,60.21781990231347,
47,green,440,1.0,,,,,,0,46,46,46,,,,,,,,,,,,,,,,,,,,,lb,002,2019_Sep_28_0931,StressSession,3.2.3,60.21781990231347,
48,green,440,1.0,,,,,,0,47,47,47,,,,,,,,,,,,,,,,,,,,,lb,002,2019_Sep_28_0931,StressSession,3.2.3,60.21781990231347,
49,green,440,1.0,,,,,,0,48,48,48,,,,,,,,,,,,,,,,,,,,,lb,002,2019_Sep_28_0931,StressSession,3.2.3,60.21781990231347,
50,green,440,1.0,,,,,,0,49,49,49,,,,,,,,,,,,,,,,,,,,,lb,002,2019_Sep_28_0931,StressSession,3.2.3,60.21781990231347,
51,green,440,1.0,,,,,,0,50,50,50,,,,,,,,,,,,,,,,,,,,,lb,002,2019_Sep_28_0931,StressSession,3.2.3,60.21781990231347,
52,green,440,1.0,,,,,,0,51,51,51,,,,,,,,,,,,,,,,,,,,,lb,002,2019_Sep_28_0931,StressSession,3.2.3,60.21781990231347,
53,green,440,1.0,,,,,,0,52,52,52,,,,,,,,,,,,,,,,,,,,,lb,002,2019_Sep_28_0931,StressSession,3.2.3,60.21781990231347,
54,green,440,1.0,,,,,,0,53,53,53,,,,,,,,,,,,,,,,,,,,,lb,002,2019_Sep_28_0931,StressSession,3.2.3,60.21781990231347,
55,green,440,1.0,,,,,,0,54,54,54,,,,,,,,,,,,,,,,,,,,,lb,002,2019_Sep_28_0931,StressSession,3.2.3,60.21781990231347,
56,green,440,1.0,,,,,,0,55,55,55,,,,,,,,,,,,,,,,,,,,,lb,002,2019_Sep_28_0931,StressSession,3.2.3,60.21781990231347,
57,green,440,1.0,,,,,,0,56,56,56,,,,,,,,,,,,,,,,,,,,,lb,002,2019_Sep_28_0931,StressSession,3.2.3,60.21781990231347,
58,green,440,1.0,,,,,,0,57,57,57,,,,,,,,,,,,,,,,,,,,,lb,002,2019_Sep_28_0931,StressSession,3.2.3,60.21781990231347,
59,green,440,1.0,,,,,,0,58,58,58,,,,,,,,,,,,,,,,,,,,,lb,002,2019_Sep_28_0931,StressSession,3.2.3,60.21781990231347,
60,green,440,1.0,,,,,,0,59,59,59,,,,,,,,,,,,,,,,,,,,,lb,002,2019_Sep_28_0931,StressSession,3.2.3,60.21781990231347,
61,green,440,1.0,,,,,,0,60,60,60,,,,,,,,,,,,,,,,,,,,,lb,002,2019_Sep_28_0931,StressSession,3.2.3,60.21781990231347,
62,green,440,1.0,,,,,,0,61,61,61,,,,,,,,,,,,,,,,,,,,,lb,002,2019_Sep_28_0931,StressSession,3.2.3,60.21781990231347,
63,green,440,1.0,,,,,,0,62,62,62,,,,,,,,,,,,,,,,,,,,,lb,002,2019_Sep_28_0931,StressSession,3.2.3,60.21781990231347,
64,green,440,1.0,,,,,,0,63,63,63,,,,,,,,,,,,,,,,,,,,,lb,002,2019_Sep_28_0931,StressSession,3.2.3,60.21781990231347,
65,green,440,1.0,,,,,,0,64,64,64,,,,,,,,,,,,,,,,,,,,,lb,002,2019_Sep_28_0931,StressSession,3.2.3,60.21781990231347,
66,green,440,1.0,,,,,,0,65,65,65,,,,,,,,,,,,,,,,,,,,,lb,002,2019_Sep_28_0931,StressSession,3.2.3,60.21781990231347,
67,green,440,1.0,,,,,,0,66,66,66,,,,,,,,,,,,,,,,,,,,,lb,002,2019_Sep_28_0931,StressSession,3.2.3,60.21781990231347,
68,green,440,1.0,,,,,,0,67,67,67,,,,,,,,,,,,,,,,,,,,,lb,002,2019_Sep_28_0931,StressSession,3.2.3,60.21781990231347,
69,green,440,1.0,,,,,,0,68,68,68,,,,,,,,,,,,,,,,,,,,,lb,002,2019_Sep_28_0931,StressSession,3.2.3,60.21781990231347,
70,green,440,1.0,,,,,,0,69,69,69,,,,,,,,,,,,,,,,,,,,,lb,002,2019_Sep_28_0931,StressSession,3.2.3,60.21781990231347,
71,green,440,1.0,,,,,,0,70,70,70,,,,,,,,,,,,,,,,,,,,,lb,002,2019_Sep_28_0931,StressSession,3.2.3,60.21781990231347,
72,green,440,1.0,,,,,,0,71,71,71,,,,,,,,,,,,,,,,,,,,,lb,002,2019_Sep_28_0931,StressSession,3.2.3,60.21781990231347,
73,green,440,1.0,,,,,,0,72,72,72,,,,,,,,,,,,,,,,,,,,,lb,002,2019_Sep_28_0931,StressSession,3.2.3,60.21781990231347,
74,green,440,1.0,,,,,,0,73,73,73,,,,,,,,,,,,,,,,,,,,,lb,002,2019_Sep_28_0931,StressSession,3.2.3,60.21781990231347,
75,green,440,1.0,,,,,,0,74,74,74,,,,,,,,,,,,,,,,,,,,,lb,002,2019_Sep_28_0931,StressSession,3.2.3,60.21781990231347,
76,green,440,1.0,,,,,,0,75,75,75,,,,,,,,,,,,,,,,,,,,,lb,002,2019_Sep_28_0931,StressSession,3.2.3,60.21781990231347,
77,green,440,1.0,,,,,,0,76,76,76,,,,,,,,,,,,,,,,,,,,,lb,002,2019_Sep_28_0931,StressSession,3.2.3,60.21781990231347,
78,green,440,1.0,,,,,,0,77,77,77,,,,,,,,,,,,,,,,,,,,,lb,002,2019_Sep_28_0931,StressSession,3.2.3,60.21781990231347,
79,green,440,1.0,,,,,,0,78,78,78,,,,,,,,,,,,,,,,,,,,,lb,002,2019_Sep_28_0931,StressSession,3.2.3,60.21781990231347,
80,green,440,1.0,,,,,,0,79,79,79,,,,,,,,,,,,,,,,,,,,,lb,002,2019_Sep_28_0931,StressSession,3.2.3,60.21781990231347,
81,green,440,1.0,,,,,,0,80,80,80,,,,,,,,,,,,,,,,,,,,,lb,002,2019_Sep_28_0931,StressSession,3.2.3,60.21781990231347,
82,green,440,1.0,,,,,,0,81,81,81,,,,,,,,,,,,,,,,,,,,,lb,002,2019_Sep_28_0931,StressSession,3.2.3,60.21781990231347,
83,green,440,1.0,,,,,,0,82,82,82,,,,,,,,,,,,,,,,,,,,,lb,002,2019_Sep_28_0931,StressSession,3.2.3,60.21781990231347,
84,green,440,1.0,,,,,,0,83,83,83,,,,,,,,,,,,,,,,,,,,,lb,002,2019_Sep_28_0931,StressSession,3.2.3,60.21781990231347,
85,green,440,1.0,,,,,,0,84,84,84,,,,,,,,,,,,,,,,,,,,,lb,002,2019_Sep_28_0931,StressSession,3.2.3,60.21781990231347,
86,green,440,1.0,,,,,,0,85,85,85,,,,,,,,,,,,,,,,,,,,,lb,002,2019_Sep_28_0931,StressSession,3.2.3,60.21781990231347,
87,green,440,1.0,,,,,,0,86,86,86,,,,,,,,,,,,,,,,,,,,,lb,002,2019_Sep_28_0931,StressSession,3.2.3,60.21781990231347,
88,green,440,1.0,,,,,,0,87,87,87,,,,,,,,,,,,,,,,,,,,,lb,002,2019_Sep_28_0931,StressSession,3.2.3,60.21781990231347,
89,green,440,1.0,,,,,,0,88,88,88,,,,,,,,,,,,,,,,,,,,,lb,002,2019_Sep_28_0931,StressSession,3.2.3,60.21781990231347,
90,green,440,1.0,,,,,,0,89,89,89,,,,,,,,,,,,,,,,,,,,,lb,002,2019_Sep_28_0931,StressSession,3.2.3,60.21781990231347,
91,green,440,1.0,,,,,,0,90,90,90,,,,,,,,,,,,,,,,,,,,,lb,002,2019_Sep_28_0931,StressSession,3.2.3,60.21781990231347,
92,green,440,1.0,,,,,,0,91,91,91,,,,,,,,,,,,,,,,,,,,,lb,002,2019_Sep_28_0931,StressSession,3.2.3,60.21781990231347,
93,green,440,1.0,,,,,,0,92,92,92,,,,,,,,,,,,,,,,,,,,,lb,002,2019_Sep_28_0931,StressSession,3.2.3,60.21781990231347,
94,green,440,1.0,,,,,,0,93,93,93,,,,,,,,,,,,,,,,,,,,,lb,002,2019_Sep_28_0931,StressSession,3.2.3,60.21781990231347,
95,green,440,1.0,,,,,,0,94,94,94,,,,,,,,,,,,,,,,,,,,,lb,002,2019_Sep_28_0931,StressSession,3.2.3,60.21781990231347,
96,green,440,1.0,,,,,,0,95,95,95,,,,,,,,,,,,,,,,,,,,,lb,002,2019_Sep_28_0931,StressSession,3.2.3,60.21781990231347,
97,green,440,1.0,,,,,,0,96,96,96,,,,,,,,,,,,,,,,,,,,,lb,002,2019_Sep_28_0931,StressSession,3.2.3,60.21781990231347,
98,green,440,1.0,,,,,,0,97,97,97,,,,,,,,,,,,,,,,,,,,,lb,002,2019_Sep_28_0931,StressSession,3.2.3,60.21781990231347,
99,green,440,1.0,,,,,,0,98,98,98,,,,,,,,,,,,,,,,,,,,,lb,002,2019_Sep_28_0931,StressSession,3.2.3,60.21781990231347,
100,green,440,1.0,,,,,,0,99,99,99,,,,,,,,,,,,,,,,,,,,,lb,002,2019_Sep_28_0931,StressSession,3.2.3,60.21781990231347,
101,green,440,1.0,,,,,,0,100,100,100,,,,,,,,,,,,,,,,,,,,,lb,002,2019_Sep_28_0931,StressSession,3.2.3,60.21781990231347,
102,green,440,1.0,,,,,,0,101,101,101,,,,,,,,,,,,,,,,,,,,,lb,002,2019_Sep_28_0931,StressSession,3.2.3,60.21781990231347,
103,green,440,1.0,,,,,,0,102,102,102,,,,,,,,,,,,,,,,,,,,,lb,002,2019_Sep_28_0931,StressSession,3.2.3,60.21781990231347,
104,green,440,1.0,,,,,,0,103,103,103,,,,,,,,,,,,,,,,,,,,,lb,002,2019_Sep_28_0931,StressSession,3.2.3,60.21781990231347,
105,green,440,1.0,,,,,,0,104,104,104,,,,,,,,,,,,,,,,,,,,,lb,002,2019_Sep_28_0931,StressSession,3.2.3,60.21781990231347,
106,green,440,1.0,,,,,,0,105,105,105,,,,,,,,,,,,,,,,,,,,,lb,002,2019_Sep_28_0931,StressSession,3.2.3,60.21781990231347,
107,green,440,1.0,,,,,,0,106,106,106,,,,,,,,,,,,,,,,,,,,,lb,002,2019_Sep_28_0931,StressSession,3.2.3,60.21781990231347,
108,green,440,1.0,,,,,,0,107,107,107,,,,,,,,,,,,,,,,,,,,,lb,002,2019_Sep_28_0931,StressSession,3.2.3,60.21781990231347,
109,green,440,1.0,,,,,,0,108,108,108,,,,,,,,,,,,,,,,,,,,,lb,002,2019_Sep_28_0931,StressSession,3.2.3,60.21781990231347,
110,green,440,1.0,,,,,,0,109,109,109,,,,,,,,,,,,,,,,,,,,,lb,002,2019_Sep_28_0931,StressSession,3.2.3,60.21781990231347,
111,green,440,1.0,,,,,,0,110,110,110,,,,,,,,,,,,,,,,,,,,,lb,002,2019_Sep_28_0931,StressSession,3.2.3,60.21781990231347,
112,green,440,1.0,,,,,,0,111,111,111,,,,,,,,,,,,,,,,,,,,,lb,002,2019_Sep_28_0931,StressSession,3.2.3,60.21781990231347,
113,green,440,1.0,,,,,,0,112,112,112,,,,,,,,,,,,,,,,,,,,,lb,002,2019_Sep_28_0931,StressSession,3.2.3,60.21781990231347,
114,green,440,1.0,,,,,,0,113,113,113,,,,,,,,,,,,,,,,,,,,,lb,002,2019_Sep_28_0931,StressSession,3.2.3,60.21781990231347,
115,green,440,1.0,,,,,,0,114,114,114,,,,,,,,,,,,,,,,,,,,,lb,002,2019_Sep_28_0931,StressSession,3.2.3,60.21781990231347,
116,green,440,1.0,,,,,,0,115,115,115,,,,,,,,,,,,,,,,,,,,,lb,002,2019_Sep_28_0931,StressSession,3.2.3,60.21781990231347,
117,green,440,1.0,,,,,,0,116,116,116,,,,,,,,,,,,,,,,,,,,,lb,002,2019_Sep_28_0931,StressSession,3.2.3,60.21781990231347,
118,green,440,1.0,,,,,,0,117,117,117,,,,,,,,,,,,,,,,,,,,,lb,002,2019_Sep_28_0931,StressSession,3.2.3,60.21781990231347,
119,green,440,1.0,,,,,,0,118,118,118,,,,,,,,,,,,,,,,,,,,,lb,002,2019_Sep_28_0931,StressSession,3.2.3,60.21781990231347,
120,green,440,1.0,,,,,,0,119,119,119,,,,,,,,,,,,,,,,,,,,,lb,002,2019_Sep_28_0931,StressSession,3.2.3,60.21781990231347,
121,green,440,1.0,,,,,,0,120,120,120,,,,,,,,,,,,,,,,,,,,,lb,002,2019_Sep_28_0931,StressSession,3.2.3,60.21781990231347,
122,green,440,1.0,,,,,,0,121,121,121,,,,,,,,,,,,,,,,,,,,,lb,002,2019_Sep_28_0931,StressSession,3.2.3,60.21781990231347,
123,green,440,1.0,,,,,,0,122,122,122,,,,,,,,,,,,,,,,,,,,,lb,002,2019_Sep_28_0931,StressSession,3.2.3,60.21781990231347,
124,green,440,1.0,,,,,,0,123,123,123,,,,,,,,,,,,,,,,,,,,,lb,002,2019_Sep_28_0931,StressSession,3.2.3,60.21781990231347,
125,green,440,1.0,,,,,,0,124,124,124,,,,,,,,,,,,,,,,,,,,,lb,002,2019_Sep_28_0931,StressSession,3.2.3,60.21781990231347,
126,green,440,1.0,,,,,,0,125,125,125,,,,,,,,,,,,,,,,,,,,,lb,002,2019_Sep_28_0931,StressSession,3.2.3,60.21781990231347,
127,green,440,1.0,,,,,,0,126,126,126,,,,,,,,,,,,,,,,,,,,,lb,002,2019_Sep_28_0931,StressSession,3.2.3,60.21781990231347,
128,green,440,1.0,,,,,,0,127,127,127,,,,,,,,,,,,,,,,,,,,,lb,002,2019_Sep_28_0931,StressSession,3.2.3,60.21781990231347,
129,green,440,1.0,,,,,,0,128,128,128,,,,,,,,,,,,,,,,,,,,,lb,002,2019_Sep_28_0931,StressSession,3.2.3,60.21781990231347,
130,green,440,1.0,,,,,,0,129,129,129,,,,,,,,,,,,,,,,,,,,,lb,002,2019_Sep_28_0931,StressSession,3.2.3,60.21781990231347,
131,green,440,1.0,,,,,,0,130,130,130,,,,,,,,,,,,,,,,,,,,,lb,002,2019_Sep_28_0931,StressSession,3.2.3,60.21781990231347,
132,green,440,1.0,,,,,,0,131,131,131,,,,,,,,,,,,,,,,,,,,,lb,002,2019_Sep_28_0931,StressSession,3.2.3,60.21781990231347,
133,green,440,1.0,,,,,,0,132,132,132,,,,,,,,,,,,,,,,,,,,,lb,002,2019_Sep_28_0931,StressSession,3.2.3,60.21781990231347,
134,green,440,1.0,,,,,,0,133,133,133,,,,,,,,,,,,,,,,,,,,,lb,002,2019_Sep_28_0931,StressSession,3.2.3,60.21781990231347,
135,green,440,1.0,,,,,,0,134,134,134,,,,,,,,,,,,,,,,,,,,,lb,002,2019_Sep_28_0931,StressSession,3.2.3,60.21781990231347,
136,green,440,1.0,,,,,,0,135,135,135,,,,,,,,,,,,,,,,,,,,,lb,002,2019_Sep_28_0931,StressSession,3.2.3,60.21781990231347,
137,green,440,1.0,,,,,,0,136,136,136,,,,,,,,,,,,,,,,,,,,,lb,002,2019_Sep_28_0931,StressSession,3.2.3,60.21781990231347,
138,green,440,1.0,,,,,,0,137,137,137,,,,,,,,,,,,,,,,,,,,,lb,002,2019_Sep_28_0931,StressSession,3.2.3,60.21781990231347,
139,green,440,1.0,,,,,,0,138,138,138,,,,,,,,,,,,,,,,,,,,,lb,002,2019_Sep_28_0931,StressSession,3.2.3,60.21781990231347,
140,green,440,1.0,,,,,,0,139,139,139,,,,,,,,,,,,,,,,,,,,,lb,002,2019_Sep_28_0931,StressSession,3.2.3,60.21781990231347,
141,green,440,1.0,,,,,,0,140,140,140,,,,,,,,,,,,,,,,,,,,,lb,002,2019_Sep_28_0931,StressSession,3.2.3,60.21781990231347,
142,green,440,1.0,,,,,,0,141,141,141,,,,,,,,,,,,,,,,,,,,,lb,002,2019_Sep_28_0931,StressSession,3.2.3,60.21781990231347,
143,green,440,1.0,,,,,,0,142,142,142,,,,,,,,,,,,,,,,,,,,,lb,002,2019_Sep_28_0931,StressSession,3.2.3,60.21781990231347,
144,green,440,1.0,,,,,,0,143,143,143,,,,,,,,,,,,,,,,,,,,,lb,002,2019_Sep_28_0931,StressSession,3.2.3,60.21781990231347,
145,green,440,1.0,,,,,,0,144,144,144,,,,,,,,,,,,,,,,,,,,,lb,002,2019_Sep_28_0931,StressSession,3.2.3,60.21781990231347,
146,green,440,1.0,,,,,,0,145,145,145,,,,,,,,,,,,,,,,,,,,,lb,002,2019_Sep_28_0931,StressSession,3.2.3,60.21781990231347,
147,green,440,1.0,,,,,,0,146,146,146,,,,,,,,,,,,,,,,,,,,,lb,002,2019_Sep_28_0931,StressSession,3.2.3,60.21781990231347,
148,green,440,1.0,,,,,,0,147,147,147,,,,,,,,,,,,,,,,,,,,,lb,002,2019_Sep_28_0931,StressSession,3.2.3,60.21781990231347,
149,green,440,1.0,,,,,,0,148,148,148,,,,,,,,,,,,,,,,,,,,,lb,002,2019_Sep_28_0931,StressSession,3.2.3,60.21781990231347,
150,green,440,1.0,,,,,,0,149,149,149,,,,,,,,,,,,,,,,,,,,,lb,002,2019_Sep_28_0931,StressSession,3.2.3,60.21781990231347,
151,green,440,1.0,,,,,,0,150,150,150,,,,,,,,,,,,,,,,,,,,,lb,002,2019_Sep_28_0931,StressSession,3.2.3,60.21781990231347,
152,green,440,1.0,,,,,,0,151,151,151,,,,,,,,,,,,,,,,,,,,,lb,002,2019_Sep_28_0931,StressSession,3.2.3,60.21781990231347,
153,green,440,1.0,,,,,,0,152,152,152,,,,,,,,,,,,,,,,,,,,,lb,002,2019_Sep_28_0931,StressSession,3.2.3,60.21781990231347,
154,green,440,1.0,,,,,,0,153,153,153,,,,,,,,,,,,,,,,,,,,,lb,002,2019_Sep_28_0931,StressSession,3.2.3,60.21781990231347,
155,green,440,1.0,,,,,,0,154,154,154,,,,,,,,,,,,,,,,,,,,,lb,002,2019_Sep_28_0931,StressSession,3.2.3,60.21781990231347,
156,green,440,1.0,,,,,,0,155,155,155,,,,,,,,,,,,,,,,,,,,,lb,002,2019_Sep_28_0931,StressSession,3.2.3,60.21781990231347,
157,green,440,1.0,,,,,,0,156,156,156,,,,,,,,,,,,,,,,,,,,,lb,002,2019_Sep_28_0931,StressSession,3.2.3,60.21781990231347,
158,green,440,1.0,,,,,,0,157,157,157,,,,,,,,,,,,,,,,,,,,,lb,002,2019_Sep_28_0931,StressSession,3.2.3,60.21781990231347,
159,green,440,1.0,,,,,,0,158,158,158,,,,,,,,,,,,,,,,,,,,,lb,002,2019_Sep_28_0931,StressSession,3.2.3,60.21781990231347,
160,green,440,1.0,,,,,,0,159,159,159,,,,,,,,,,,,,,,,,,,,,lb,002,2019_Sep_28_0931,StressSession,3.2.3,60.21781990231347,
161,green,440,1.0,,,,,,0,160,160,160,,,,,,,,,,,,,,,,,,,,,lb,002,2019_Sep_28_0931,StressSession,3.2.3,60.21781990231347,
162,green,440,1.0,,,,,,0,161,161,161,,,,,,,,,,,,,,,,,,,,,lb,002,2019_Sep_28_0931,StressSession,3.2.3,60.21781990231347,
163,green,440,1.0,,,,,,0,162,162,162,,,,,,,,,,,,,,,,,,,,,lb,002,2019_Sep_28_0931,StressSession,3.2.3,60.21781990231347,
164,green,440,1.0,,,,,,0,163,163,163,,,,,,,,,,,,,,,,,,,,,lb,002,2019_Sep_28_0931,StressSession,3.2.3,60.21781990231347,
165,green,440,1.0,,,,,,0,164,164,164,,,,,,,,,,,,,,,,,,,,,lb,002,2019_Sep_28_0931,StressSession,3.2.3,60.21781990231347,
166,green,440,1.0,,,,,,0,165,165,165,,,,,,,,,,,,,,,,,,,,,lb,002,2019_Sep_28_0931,StressSession,3.2.3,60.21781990231347,
167,green,440,1.0,,,,,,0,166,166,166,,,,,,,,,,,,,,,,,,,,,lb,002,2019_Sep_28_0931,StressSession,3.2.3,60.21781990231347,
168,green,440,1.0,,,,,,0,167,167,167,,,,,,,,,,,,,,,,,,,,,lb,002,2019_Sep_28_0931,StressSession,3.2.3,60.21781990231347,
169,green,440,1.0,,,,,,0,168,168,168,,,,,,,,,,,,,,,,,,,,,lb,002,2019_Sep_28_0931,StressSession,3.2.3,60.21781990231347,
170,green,440,1.0,,,,,,0,169,169,169,,,,,,,,,,,,,,,,,,,,,lb,002,2019_Sep_28_0931,StressSession,3.2.3,60.21781990231347,
171,green,440,1.0,,,,,,0,170,170,170,,,,,,,,,,,,,,,,,,,,,lb,002,2019_Sep_28_0931,StressSession,3.2.3,60.21781990231347,
172,green,440,1.0,,,,,,0,171,171,171,,,,,,,,,,,,,,,,,,,,,lb,002,2019_Sep_28_0931,StressSession,3.2.3,60.21781990231347,
173,green,440,1.0,,,,,,0,172,172,172,,,,,,,,,,,,,,,,,,,,,lb,002,2019_Sep_28_0931,StressSession,3.2.3,60.21781990231347,
174,green,440,1.0,,,,,,0,173,173,173,,,,,,,,,,,,,,,,,,,,,lb,002,2019_Sep_28_0931,StressSession,3.2.3,60.21781990231347,
175,green,440,1.0,,,,,,0,174,174,174,,,,,,,,,,,,,,,,,,,,,lb,002,2019_Sep_28_0931,StressSession,3.2.3,60.21781990231347,
176,green,440,1.0,,,,,,0,175,175,175,,,,,,,,,,,,,,,,,,,,,lb,002,2019_Sep_28_0931,StressSession,3.2.3,60.21781990231347,
177,green,440,1.0,,,,,,0,176,176,176,,,,,,,,,,,,,,,,,,,,,lb,002,2019_Sep_28_0931,StressSession,3.2.3,60.21781990231347,
178,green,440,1.0,,,,,,0,177,177,177,,,,,,,,,,,,,,,,,,,,,lb,002,2019_Sep_28_0931,StressSession,3.2.3,60.21781990231347,
179,green,440,1.0,,,,,,0,178,178,178,,,,,,,,,,,,,,,,,,,,,lb,002,2019_Sep_28_0931,StressSession,3.2.3,60.21781990231347,
180,yellow,880,0.5,,,,,,0,179,179,179,,,,,,,,,,,,,,,,,,,,,lb,002,2019_Sep_28_0931,StressSession,3.2.3,60.21781990231347,
181,yellow,880,0.5,,,,,,0,180,180,180,,,,,,,,,,,,,,,,,,,,,lb,002,2019_Sep_28_0931,StressSession,3.2.3,60.21781990231347,
182,yellow,880,0.5,,,,,,0,181,181,181,,,,,,,,,,,,,,,,,,,,,lb,002,2019_Sep_28_0931,StressSession,3.2.3,60.21781990231347,
183,yellow,880,0.5,,,,,,0,182,182,182,,,,,,,,,,,,,,,,,,,,,lb,002,2019_Sep_28_0931,StressSession,3.2.3,60.21781990231347,
184,yellow,880,0.5,,,,,,0,183,183,183,,,,,,,,,,,,,,,,,,,,,lb,002,2019_Sep_28_0931,StressSession,3.2.3,60.21781990231347,
185,yellow,880,0.5,,,,,,0,184,184,184,,,,,,,,,,,,,,,,,,,,,lb,002,2019_Sep_28_0931,StressSession,3.2.3,60.21781990231347,
186,yellow,880,0.5,,,,,,0,185,185,185,,,,,,,,,,,,,,,,,,,,,lb,002,2019_Sep_28_0931,StressSession,3.2.3,60.21781990231347,
187,yellow,880,0.5,,,,,,0,186,186,186,,,,,,,,,,,,,,,,,,,,,lb,002,2019_Sep_28_0931,StressSession,3.2.3,60.21781990231347,
188,yellow,880,0.5,,,,,,0,187,187,187,,,,,,,,,,,,,,,,,,,,,lb,002,2019_Sep_28_0931,StressSession,3.2.3,60.21781990231347,
189,yellow,880,0.5,,,,,,0,188,188,188,,,,,,,,,,,,,,,,,,,,,lb,002,2019_Sep_28_0931,StressSession,3.2.3,60.21781990231347,
190,yellow,880,0.5,,,,,,0,189,189,189,,,,,,,,,,,,,,,,,,,,,lb,002,2019_Sep_28_0931,StressSession,3.2.3,60.21781990231347,
191,yellow,880,0.5,,,,,,0,190,190,190,,,,,,,,,,,,,,,,,,,,,lb,002,2019_Sep_28_0931,StressSession,3.2.3,60.21781990231347,
192,yellow,880,0.5,,,,,,0,191,191,191,,,,,,,,,,,,,,,,,,,,,lb,002,2019_Sep_28_0931,StressSession,3.2.3,60.21781990231347,
193,yellow,880,0.5,,,,,,0,192,192,192,,,,,,,,,,,,,,,,,,,,,lb,002,2019_Sep_28_0931,StressSession,3.2.3,60.21781990231347,
194,yellow,880,0.5,,,,,,0,193,193,193,,,,,,,,,,,,,,,,,,,,,lb,002,2019_Sep_28_0931,StressSession,3.2.3,60.21781990231347,
195,yellow,880,0.5,,,,,,0,194,194,194,,,,,,,,,,,,,,,,,,,,,lb,002,2019_Sep_28_0931,StressSession,3.2.3,60.21781990231347,
196,yellow,880,0.5,,,,,,0,195,195,195,,,,,,,,,,,,,,,,,,,,,lb,002,2019_Sep_28_0931,StressSession,3.2.3,60.21781990231347,
197,yellow,880,0.5,,,,,,0,196,196,196,,,,,,,,,,,,,,,,,,,,,lb,002,2019_Sep_28_0931,StressSession,3.2.3,60.21781990231347,
198,yellow,880,0.5,,,,,,0,197,197,197,,,,,,,,,,,,,,,,,,,,,lb,002,2019_Sep_28_0931,StressSession,3.2.3,60.21781990231347,
199,yellow,880,0.5,,,,,,0,198,198,198,,,,,,,,,,,,,,,,,,,,,lb,002,2019_Sep_28_0931,StressSession,3.2.3,60.21781990231347,
200,yellow,880,0.5,,,,,,0,199,199,199,,,,,,,,,,,,,,,,,,,,,lb,002,2019_Sep_28_0931,StressSession,3.2.3,60.21781990231347,
201,yellow,880,0.5,,,,,,0,200,200,200,,,,,,,,,,,,,,,,,,,,,lb,002,2019_Sep_28_0931,StressSession,3.2.3,60.21781990231347,
202,yellow,880,0.5,,,,,,0,201,201,201,,,,,,,,,,,,,,,,,,,,,lb,002,2019_Sep_28_0931,StressSession,3.2.3,60.21781990231347,
203,yellow,880,0.5,,,,,,0,202,202,202,,,,,,,,,,,,,,,,,,,,,lb,002,2019_Sep_28_0931,StressSession,3.2.3,60.21781990231347,
204,yellow,880,0.5,,,,,,0,203,203,203,,,,,,,,,,,,,,,,,,,,,lb,002,2019_Sep_28_0931,StressSession,3.2.3,60.21781990231347,
205,yellow,880,0.5,,,,,,0,204,204,204,,,,,,,,,,,,,,,,,,,,,lb,002,2019_Sep_28_0931,StressSession,3.2.3,60.21781990231347,
206,yellow,880,0.5,,,,,,0,205,205,205,,,,,,,,,,,,,,,,,,,,,lb,002,2019_Sep_28_0931,StressSession,3.2.3,60.21781990231347,
207,yellow,880,0.5,,,,,,0,206,206,206,,,,,,,,,,,,,,,,,,,,,lb,002,2019_Sep_28_0931,StressSession,3.2.3,60.21781990231347,
208,yellow,880,0.5,,,,,,0,207,207,207,,,,,,,,,,,,,,,,,,,,,lb,002,2019_Sep_28_0931,StressSession,3.2.3,60.21781990231347,
209,yellow,880,0.5,,,,,,0,208,208,208,,,,,,,,,,,,,,,,,,,,,lb,002,2019_Sep_28_0931,StressSession,3.2.3,60.21781990231347,
210,yellow,880,0.5,,,,,,0,209,209,209,,,,,,,,,,,,,,,,,,,,,lb,002,2019_Sep_28_0931,StressSession,3.2.3,60.21781990231347,
211,yellow,880,0.5,,,,,,0,210,210,210,,,,,,,,,,,,,,,,,,,,,lb,002,2019_Sep_28_0931,StressSession,3.2.3,60.21781990231347,
212,yellow,880,0.5,,,,,,0,211,211,211,,,,,,,,,,,,,,,,,,,,,lb,002,2019_Sep_28_0931,StressSession,3.2.3,60.21781990231347,
213,yellow,880,0.5,,,,,,0,212,212,212,,,,,,,,,,,,,,,,,,,,,lb,002,2019_Sep_28_0931,StressSession,3.2.3,60.21781990231347,
214,yellow,880,0.5,,,,,,0,213,213,213,,,,,,,,,,,,,,,,,,,,,lb,002,2019_Sep_28_0931,StressSession,3.2.3,60.21781990231347,
215,yellow,880,0.5,,,,,,0,214,214,214,,,,,,,,,,,,,,,,,,,,,lb,002,2019_Sep_28_0931,StressSession,3.2.3,60.21781990231347,
216,yellow,880,0.5,,,,,,0,215,215,215,,,,,,,,,,,,,,,,,,,,,lb,002,2019_Sep_28_0931,StressSession,3.2.3,60.21781990231347,
217,yellow,880,0.5,,,,,,0,216,216,216,,,,,,,,,,,,,,,,,,,,,lb,002,2019_Sep_28_0931,StressSession,3.2.3,60.21781990231347,
218,yellow,880,0.5,,,,,,0,217,217,217,,,,,,,,,,,,,,,,,,,,,lb,002,2019_Sep_28_0931,StressSession,3.2.3,60.21781990231347,
219,yellow,880,0.5,,,,,,0,218,218,218,,,,,,,,,,,,,,,,,,,,,lb,002,2019_Sep_28_0931,StressSession,3.2.3,60.21781990231347,
220,yellow,880,0.5,,,,,,0,219,219,219,,,,,,,,,,,,,,,,,,,,,lb,002,2019_Sep_28_0931,StressSession,3.2.3,60.21781990231347,
221,yellow,880,0.5,,,,,,0,220,220,220,,,,,,,,,,,,,,,,,,,,,lb,002,2019_Sep_28_0931,StressSession,3.2.3,60.21781990231347,
222,yellow,880,0.5,,,,,,0,221,221,221,,,,,,,,,,,,,,,,,,,,,lb,002,2019_Sep_28_0931,StressSession,3.2.3,60.21781990231347,
223,yellow,880,0.5,,,,,,0,222,222,222,,,,,,,,,,,,,,,,,,,,,lb,002,2019_Sep_28_0931,StressSession,3.2.3,60.21781990231347,
224,yellow,880,0.5,,,,,,0,223,223,223,,,,,,,,,,,,,,,,,,,,,lb,002,2019_Sep_28_0931,StressSession,3.2.3,60.21781990231347,
225,yellow,880,0.5,,,,,,0,224,224,224,,,,,,,,,,,,,,,,,,,,,lb,002,2019_Sep_28_0931,StressSession,3.2.3,60.21781990231347,
226,yellow,880,0.5,,,,,,0,225,225,225,,,,,,,,,,,,,,,,,,,,,lb,002,2019_Sep_28_0931,StressSession,3.2.3,60.21781990231347,
227,yellow,880,0.5,,,,,,0,226,226,226,,,,,,,,,,,,,,,,,,,,,lb,002,2019_Sep_28_0931,StressSession,3.2.3,60.21781990231347,
228,yellow,880,0.5,,,,,,0,227,227,227,,,,,,,,,,,,,,,,,,,,,lb,002,2019_Sep_28_0931,StressSession,3.2.3,60.21781990231347,
229,yellow,880,0.5,,,,,,0,228,228,228,,,,,,,,,,,,,,,,,,,,,lb,002,2019_Sep_28_0931,StressSession,3.2.3,60.21781990231347,
230,yellow,880,0.5,,,,,,0,229,229,229,,,,,,,,,,,,,,,,,,,,,lb,002,2019_Sep_28_0931,StressSession,3.2.3,60.21781990231347,
231,yellow,880,0.5,,,,,,0,230,230,230,,,,,,,,,,,,,,,,,,,,,lb,002,2019_Sep_28_0931,StressSession,3.2.3,60.21781990231347,
232,yellow,880,0.5,,,,,,0,231,231,231,,,,,,,,,,,,,,,,,,,,,lb,002,2019_Sep_28_0931,StressSession,3.2.3,60.21781990231347,
233,yellow,880,0.5,,,,,,0,232,232,232,,,,,,,,,,,,,,,,,,,,,lb,002,2019_Sep_28_0931,StressSession,3.2.3,60.21781990231347,
234,yellow,880,0.5,,,,,,0,233,233,233,,,,,,,,,,,,,,,,,,,,,lb,002,2019_Sep_28_0931,StressSession,3.2.3,60.21781990231347,
235,yellow,880,0.5,,,,,,0,234,234,234,,,,,,,,,,,,,,,,,,,,,lb,002,2019_Sep_28_0931,StressSession,3.2.3,60.21781990231347,
236,yellow,880,0.5,,,,,,0,235,235,235,,,,,,,,,,,,,,,,,,,,,lb,002,2019_Sep_28_0931,StressSession,3.2.3,60.21781990231347,
237,yellow,880,0.5,,,,,,0,236,236,236,,,,,,,,,,,,,,,,,,,,,lb,002,2019_Sep_28_0931,StressSession,3.2.3,60.21781990231347,
238,yellow,880,0.5,,,,,,0,237,237,237,,,,,,,,,,,,,,,,,,,,,lb,002,2019_Sep_28_0931,StressSession,3.2.3,60.21781990231347,
239,yellow,880,0.5,,,,,,0,238,238,238,,,,,,,,,,,,,,,,,,,,,lb,002,2019_Sep_28_0931,StressSession,3.2.3,60.21781990231347,
240,red,1760,0.5,,,,,,0,239,239,239,,,,,,,,,,,,,,,,,,,,,lb,002,2019_Sep_28_0931,StressSession,3.2.3,60.21781990231347,
241,red,1760,0.5,,,,,,0,240,240,240,,,,,,,,,,,,,,,,,,,,,lb,002,2019_Sep_28_0931,StressSession,3.2.3,60.21781990231347,
242,red,1760,0.5,,,,,,0,241,241,241,,,,,,,,,,,,,,,,,,,,,lb,002,2019_Sep_28_0931,StressSession,3.2.3,60.21781990231347,
243,red,1760,0.5,,,,,,0,242,242,242,,,,,,,,,,,,,,,,,,,,,lb,002,2019_Sep_28_0931,StressSession,3.2.3,60.21781990231347,
244,red,1760,0.5,,,,,,0,243,243,243,,,,,,,,,,,,,,,,,,,,,lb,002,2019_Sep_28_0931,StressSession,3.2.3,60.21781990231347,
245,red,1760,0.5,,,,,,0,244,244,244,,,,,,,,,,,,,,,,,,,,,lb,002,2019_Sep_28_0931,StressSession,3.2.3,60.21781990231347,
246,red,1760,0.5,,,,,,0,245,245,245,,,,,,,,,,,,,,,,,,,,,lb,002,2019_Sep_28_0931,StressSession,3.2.3,60.21781990231347,
247,red,1760,0.5,,,,,,0,246,246,246,,,,,,,,,,,,,,,,,,,,,lb,002,2019_Sep_28_0931,StressSession,3.2.3,60.21781990231347,
248,red,1760,0.5,,,,,,0,247,247,247,,,,,,,,,,,,,,,,,,,,,lb,002,2019_Sep_28_0931,StressSession,3.2.3,60.21781990231347,
249,red,1760,0.5,,,,,,0,248,248,248,,,,,,,,,,,,,,,,,,,,,lb,002,2019_Sep_28_0931,StressSession,3.2.3,60.21781990231347,
250,red,1760,0.5,,,,,,0,249,249,249,,,,,,,,,,,,,,,,,,,,,lb,002,2019_Sep_28_0931,StressSession,3.2.3,60.21781990231347,
251,red,1760,0.5,,,,,,0,250,250,250,,,,,,,,,,,,,,,,,,,,,lb,002,2019_Sep_28_0931,StressSession,3.2.3,60.21781990231347,
252,red,1760,0.5,,,,,,0,251,251,251,,,,,,,,,,,,,,,,,,,,,lb,002,2019_Sep_28_0931,StressSession,3.2.3,60.21781990231347,
253,red,1760,0.5,,,,,,0,252,252,252,,,,,,,,,,,,,,,,,,,,,lb,002,2019_Sep_28_0931,StressSession,3.2.3,60.21781990231347,
254,red,1760,0.5,,,,,,0,253,253,253,,,,,,,,,,,,,,,,,,,,,lb,002,2019_Sep_28_0931,StressSession,3.2.3,60.21781990231347,
255,red,1760,0.5,,,,,,0,254,254,254,,,,,,,,,,,,,,,,,,,,,lb,002,2019_Sep_28_0931,StressSession,3.2.3,60.21781990231347,
256,red,1760,0.5,,,,,,0,255,255,255,,,,,,,,,,,,,,,,,,,,,lb,002,2019_Sep_28_0931,StressSession,3.2.3,60.21781990231347,
257,red,1760,0.5,,,,,,0,256,256,256,,,,,,,,,,,,,,,,,,,,,lb,002,2019_Sep_28_0931,StressSession,3.2.3,60.21781990231347,
258,red,1760,0.5,,,,,,0,257,257,257,,,,,,,,,,,,,,,,,,,,,lb,002,2019_Sep_28_0931,StressSession,3.2.3,60.21781990231347,
259,red,1760,0.5,,,,,,0,258,258,258,,,,,,,,,,,,,,,,,,,,,lb,002,2019_Sep_28_0931,StressSession,3.2.3,60.21781990231347,
260,red,1760,0.5,,,,,,0,259,259,259,,,,,,,,,,,,,,,,,,,,,lb,002,2019_Sep_28_0931,StressSession,3.2.3,60.21781990231347,
261,red,1760,0.5,,,,,,0,260,260,260,,,,,,,,,,,,,,,,,,,,,lb,002,2019_Sep_28_0931,StressSession,3.2.3,60.21781990231347,
262,red,1760,0.5,,,,,,0,261,261,261,,,,,,,,,,,,,,,,,,,,,lb,002,2019_Sep_28_0931,StressSession,3.2.3,60.21781990231347,
263,red,1760,0.5,,,,,,0,262,262,262,,,,,,,,,,,,,,,,,,,,,lb,002,2019_Sep_28_0931,StressSession,3.2.3,60.21781990231347,
264,red,1760,0.5,,,,,,0,263,263,263,,,,,,,,,,,,,,,,,,,,,lb,002,2019_Sep_28_0931,StressSession,3.2.3,60.21781990231347,
265,red,1760,0.5,,,,,,0,264,264,264,,,,,,,,,,,,,,,,,,,,,lb,002,2019_Sep_28_0931,StressSession,3.2.3,60.21781990231347,
266,red,1760,0.5,,,,,,0,265,265,265,,,,,,,,,,,,,,,,,,,,,lb,002,2019_Sep_28_0931,StressSession,3.2.3,60.21781990231347,
267,red,1760,0.5,,,,,,0,266,266,266,,,,,,,,,,,,,,,,,,,,,lb,002,2019_Sep_28_0931,StressSession,3.2.3,60.21781990231347,
268,red,1760,0.5,,,,,,0,267,267,267,,,,,,,,,,,,,,,,,,,,,lb,002,2019_Sep_28_0931,StressSession,3.2.3,60.21781990231347,
269,red,1760,0.5,,,,,,0,268,268,268,,,,,,,,,,,,,,,,,,,,,lb,002,2019_Sep_28_0931,StressSession,3.2.3,60.21781990231347,
270,red,1760,0.5,,,,,,0,269,269,269,,,,,,,,,,,,,,,,,,,,,lb,002,2019_Sep_28_0931,StressSession,3.2.3,60.21781990231347,
271,red,1760,0.5,,,,,,0,270,270,270,,,,,,,,,,,,,,,,,,,,,lb,002,2019_Sep_28_0931,StressSession,3.2.3,60.21781990231347,
272,red,1760,0.5,,,,,,0,271,271,271,,,,,,,,,,,,,,,,,,,,,lb,002,2019_Sep_28_0931,StressSession,3.2.3,60.21781990231347,
273,red,1760,0.5,,,,,,0,272,272,272,,,,,,,,,,,,,,,,,,,,,lb,002,2019_Sep_28_0931,StressSession,3.2.3,60.21781990231347,
274,red,1760,0.5,,,,,,0,273,273,273,,,,,,,,,,,,,,,,,,,,,lb,002,2019_Sep_28_0931,StressSession,3.2.3,60.21781990231347,
275,red,1760,0.5,,,,,,0,274,274,274,,,,,,,,,,,,,,,,,,,,,lb,002,2019_Sep_28_0931,StressSession,3.2.3,60.21781990231347,
276,red,1760,0.5,,,,,,0,275,275,275,,,,,,,,,,,,,,,,,,,,,lb,002,2019_Sep_28_0931,StressSession,3.2.3,60.21781990231347,
277,red,1760,0.5,,,,,,0,276,276,276,,,,,,,,,,,,,,,,,,,,,lb,002,2019_Sep_28_0931,StressSession,3.2.3,60.21781990231347,
278,red,1760,0.5,,,,,,0,277,277,277,,,,,,,,,,,,,,,,,,,,,lb,002,2019_Sep_28_0931,StressSession,3.2.3,60.21781990231347,
279,red,1760,0.5,,,,,,0,278,278,278,,,,,,,,,,,,,,,,,,,,,lb,002,2019_Sep_28_0931,StressSession,3.2.3,60.21781990231347,
280,red,1760,0.5,,,,,,0,279,279,279,,,,,,,,,,,,,,,,,,,,,lb,002,2019_Sep_28_0931,StressSession,3.2.3,60.21781990231347,
281,red,1760,0.5,,,,,,0,280,280,280,,,,,,,,,,,,,,,,,,,,,lb,002,2019_Sep_28_0931,StressSession,3.2.3,60.21781990231347,
282,red,1760,0.5,,,,,,0,281,281,281,,,,,,,,,,,,,,,,,,,,,lb,002,2019_Sep_28_0931,StressSession,3.2.3,60.21781990231347,
283,red,1760,0.5,,,,,,0,282,282,282,,,,,,,,,,,,,,,,,,,,,lb,002,2019_Sep_28_0931,StressSession,3.2.3,60.21781990231347,
284,red,1760,0.5,,,,,,0,283,283,283,,,,,,,,,,,,,,,,,,,,,lb,002,2019_Sep_28_0931,StressSession,3.2.3,60.21781990231347,
285,red,1760,0.5,,,,,,0,284,284,284,,,,,,,,,,,,,,,,,,,,,lb,002,2019_Sep_28_0931,StressSession,3.2.3,60.21781990231347,
286,red,1760,0.5,,,,,,0,285,285,285,,,,,,,,,,,,,,,,,,,,,lb,002,2019_Sep_28_0931,StressSession,3.2.3,60.21781990231347,
287,red,1760,0.5,,,,,,0,286,286,286,,,,,,,,,,,,,,,,,,,,,lb,002,2019_Sep_28_0931,StressSession,3.2.3,60.21781990231347,
288,red,1760,0.5,,,,,,0,287,287,287,,,,,,,,,,,,,,,,,,,,,lb,002,2019_Sep_28_0931,StressSession,3.2.3,60.21781990231347,
289,red,1760,0.5,,,,,,0,288,288,288,,,,,,,,,,,,,,,,,,,,,lb,002,2019_Sep_28_0931,StressSession,3.2.3,60.21781990231347,
290,red,1760,0.5,,,,,,0,289,289,289,,,,,,,,,,,,,,,,,,,,,lb,002,2019_Sep_28_0931,StressSession,3.2.3,60.21781990231347,
291,red,1760,0.5,,,,,,0,290,290,290,,,,,,,,,,,,,,,,,,,,,lb,002,2019_Sep_28_0931,StressSession,3.2.3,60.21781990231347,
292,red,1760,0.5,,,,,,0,291,291,291,,,,,,,,,,,,,,,,,,,,,lb,002,2019_Sep_28_0931,StressSession,3.2.3,60.21781990231347,
293,red,1760,0.5,,,,,,0,292,292,292,,,,,,,,,,,,,,,,,,,,,lb,002,2019_Sep_28_0931,StressSession,3.2.3,60.21781990231347,
294,red,1760,0.5,,,,,,0,293,293,293,,,,,,,,,,,,,,,,,,,,,lb,002,2019_Sep_28_0931,StressSession,3.2.3,60.21781990231347,
295,red,1760,0.5,,,,,,0,294,294,294,,,,,,,,,,,,,,,,,,,,,lb,002,2019_Sep_28_0931,StressSession,3.2.3,60.21781990231347,
296,red,1760,0.5,,,,,,0,295,295,295,,,,,,,,,,,,,,,,,,,,,lb,002,2019_Sep_28_0931,StressSession,3.2.3,60.21781990231347,
297,red,1760,0.5,,,,,,0,296,296,296,,,,,,,,,,,,,,,,,,,,,lb,002,2019_Sep_28_0931,StressSession,3.2.3,60.21781990231347,
298,red,1760,0.5,,,,,,0,297,297,297,,,,,,,,,,,,,,,,,,,,,lb,002,2019_Sep_28_0931,StressSession,3.2.3,60.21781990231347,
299,red,1760,0.5,,,,,,0,298,298,298,,,,,,,,,,,,,,,,,,,,,lb,002,2019_Sep_28_0931,StressSession,3.2.3,60.21781990231347,
300,red,1760,0.5,,,,,,0,299,299,299,,,,,,,,,,,,,,,,,,,,,lb,002,2019_Sep_28_0931,StressSession,3.2.3,60.21781990231347,
,,,,,,,,,,,,,,,,,,,2019-09-28_09:39:42,9,35.669,,,,,,,,,,,,lb,002,2019_Sep_28_0931,StressSession,3.2.3,60.21781990231347,
,,,,,,,,,,,,,,,,,,,,,,8,17.305,,,,,,,,,,lb,002,2019_Sep_28_0931,StressSession,3.2.3,60.21781990231347,
,,,,braun,black,schwarz,braun,left,,,,,0,0,0,191,,,,,,,,2019-09-28_09:42:35,left,1.8561191000044346,659.7129852999933,None,,,,,lb,002,2019_Sep_28_0931,StressSession,3.2.3,60.21781990231347,
,,,,gruen,yellow,gelb,gruen,left,,,,,0,1,1,132,,,,,,,,,left,1.4956345999380574,662.1131642999826,None,,,,,lb,002,2019_Sep_28_0931,StressSession,3.2.3,60.21781990231347,
,,,,gelb,white,gelb,weiß,right,,,,,0,2,2,53,,,,,,,,,right,1.1598376999609172,664.1612376000267,None,,,,,lb,002,2019_Sep_28_0931,StressSession,3.2.3,60.21781990231347,
,,,,orange,blue,orange,blau,right,,,,,0,3,3,65,,,,,,,,,right,1.0443109000334516,665.8769918000326,None,,,,,lb,002,2019_Sep_28_0931,StressSession,3.2.3,60.21781990231347,
,,,,blau,magenta,blau,magenta,right,,,,,0,4,4,11,,,,,,,,,right,1.1395325999474153,667.477565200068,None,,,,,lb,002,2019_Sep_28_0931,StressSession,3.2.3,60.21781990231347,
,,,,violett,orange,orange,violett,left,,,,,0,5,5,189,,,,,,,,,left,2.193170899990946,669.1679310000036,None,,,,,lb,002,2019_Sep_28_0931,StressSession,3.2.3,60.21781990231347,
,,,,violett,black,violett,schwarz,right,,,,,0,6,6,72,,,,,,,,,right,0.9264574999688193,671.8906194000738,None,,,,,lb,002,2019_Sep_28_0931,StressSession,3.2.3,60.21781990231347,
,,,,rot,blue,blau,rot,left,,,,,0,7,7,110,,,,,,,,,left,1.044876900035888,673.3564602000406,None,,,,,lb,002,2019_Sep_28_0931,StressSession,3.2.3,60.21781990231347,
,,,,magenta,yellow,gelb,magenta,left,,,,,0,8,8,141,,,,,,,,,left,1.3923648000927642,674.9605244999984,None,,,,,lb,002,2019_Sep_28_0931,StressSession,3.2.3,60.21781990231347,
,,,,violett,red,violett,rot,right,,,,,0,9,9,73,,,,,,,,,right,1.4547722999705002,676.9071786000859,None,,,,,lb,002,2019_Sep_28_0931,StressSession,3.2.3,60.21781990231347,
,,,,weiß,cyan,weiß,cyan,right,,,,,0,10,10,95,,,,,,,,,right,1.399420200032182,678.913929500035,None,,,,,lb,002,2019_Sep_28_0931,StressSession,3.2.3,60.21781990231347,
,,,,schwarz,magenta,schwarz,magenta,right,,,,,0,11,11,103,,,,,,,,,right,0.99648570001591,680.8606601000065,None,,,,,lb,002,2019_Sep_28_0931,StressSession,3.2.3,60.21781990231347,
,,,,violett,yellow,gelb,violett,left,,,,,0,12,12,188,,,,,,,,,left,0.8689351000357419,682.4041548999958,None,,,,,lb,002,2019_Sep_28_0931,StressSession,3.2.3,60.21781990231347,
,,,,blau,magenta,magenta,blau,left,,,,,0,13,13,121,,,,,,,,,left,1.1724151000380516,683.8053643000312,None,,,,,lb,002,2019_Sep_28_0931,StressSession,3.2.3,60.21781990231347,
,,,,blau,green,blau,gruen,right,,,,,0,14,14,10,,,,,,,,,right,1.0842170999385417,685.5010661000852,None,,,,,lb,002,2019_Sep_28_0931,StressSession,3.2.3,60.21781990231347,
,,,,magenta,purple,magenta,violett,right,,,,,0,15,15,33,,,,,,,,,right,1.9791156999999657,687.1418576000724,None,,,,,lb,002,2019_Sep_28_0931,StressSession,3.2.3,60.21781990231347,
,,,,braun,yellow,braun,gelb,right,,,,,0,16,16,87,,,,,,,,,right,2.258800199953839,689.6705013000173,None,,,,,lb,002,2019_Sep_28_0931,StressSession,3.2.3,60.21781990231347,
,,,,gruen,magenta,magenta,gruen,left,,,,,0,17,17,130,,,,,,,,,left,1.200297600007616,692.4736043000594,None,,,,,lb,002,2019_Sep_28_0931,StressSession,3.2.3,60.21781990231347,
,,,,cyan,white,cyan,weiß,right,,,,,0,18,18,44,,,,,,,,,right,1.010935999918729,694.2221901000012,None,,,,,lb,002,2019_Sep_28_0931,StressSession,3.2.3,60.21781990231347,
,,,,gelb,purple,violett,gelb,left,,,,,0,19,19,161,,,,,,,,,left,0.9015407999977469,695.7882117000408,None,,,,,lb,002,2019_Sep_28_0931,StressSession,3.2.3,60.21781990231347,
,,,,magenta,white,weiß,magenta,left,,,,,0,20,20,145,,,,,,,,,left,1.3205956999445334,697.2401824999833,None,,,,,lb,002,2019_Sep_28_0931,StressSession,3.2.3,60.21781990231347,
,,,,violett,brown,violett,braun,right,,,,,0,21,21,70,,,,,,,,,right,1.262817099923268,699.1063616999891,None,,,,,lb,002,2019_Sep_28_0931,StressSession,3.2.3,60.21781990231347,
,,,,gruen,magenta,gruen,magenta,right,,,,,0,22,22,20,,,,,,,,,right,1.2259452000726014,700.9191488000797,None,,,,,lb,002,2019_Sep_28_0931,StressSession,3.2.3,60.21781990231347,
,,,,blau,cyan,blau,cyan,right,,,,,0,23,23,12,,,,,,,,,right,0.7417543000774458,702.6834607000928,None,,,,,lb,002,2019_Sep_28_0931,StressSession,3.2.3,60.21781990231347,
,,,,schwarz,blue,blau,schwarz,left,,,,,0,24,24,211,,,,,,,,,left,0.8783654998987913,703.9711381000234,None,,,,,lb,002,2019_Sep_28_0931,StressSession,3.2.3,60.21781990231347,
,,,,magenta,red,magenta,rot,right,,,,,0,25,25,37,,,,,,,,,right,1.6634118999354541,705.4014539000345,None,,,,,lb,002,2019_Sep_28_0931,StressSession,3.2.3,60.21781990231347,
,,,,cyan,magenta,magenta,cyan,left,,,,,0,26,26,159,,,,,,,,,left,0.9584930000128224,707.596153200022,None,,,,,lb,002,2019_Sep_28_0931,StressSession,3.2.3,60.21781990231347,
,,,,schwarz,cyan,schwarz,cyan,right,,,,,0,27,27,104,,,,,,,,,right,0.712458600057289,709.0965274000773,None,,,,,lb,002,2019_Sep_28_0931,StressSession,3.2.3,60.21781990231347,
,,,,rot,cyan,cyan,rot,left,,,,,0,28,28,113,,,,,,,,,left,0.893084799987264,710.3480398000684,None,,,,,lb,002,2019_Sep_28_0931,StressSession,3.2.3,60.21781990231347,
,,,,gelb,green,gruen,gelb,left,,,,,0,29,29,167,,,,,,,,,left,1.1856330999871716,711.7847899000626,None,,,,,lb,002,2019_Sep_28_0931,StressSession,3.2.3,60.21781990231347,
,,,,cyan,black,schwarz,cyan,left,,,,,0,30,30,155,,,,,,,,,left,0.7719801000785083,713.5011060000397,None,,,,,lb,002,2019_Sep_28_0931,StressSession,3.2.3,60.21781990231347,
,,,,orange,cyan,cyan,orange,left,,,,,0,31,31,178,,,,,,,,,right,0.8555227000033483,714.8016357000452,None,,,,,lb,002,2019_Sep_28_0931,StressSession,3.2.3,60.21781990231347,
,,,,weiß,magenta,weiß,magenta,right,,,,,0,32,32,94,,,,,,,,,right,0.9362142999889329,716.2008940000087,None,,,,,lb,002,2019_Sep_28_0931,StressSession,3.2.3,60.21781990231347,
,,,,rot,brown,rot,braun,right,,,,,0,33,33,7,,,,,,,,,right,1.6964890999952331,717.6643812999828,None,,,,,lb,002,2019_Sep_28_0931,StressSession,3.2.3,60.21781990231347,
,,,,braun,purple,violett,braun,left,,,,,0,34,34,199,,,,,,,,,left,0.8539847999345511,719.9071709000273,None,,,,,lb,002,2019_Sep_28_0931,StressSession,3.2.3,60.21781990231347,
,,,,magenta,cyan,magenta,cyan,right,,,,,0,35,35,30,,,,,,,,,right,1.8113675999920815,721.3019270000514,None,,,,,lb,002,2019_Sep_28_0931,StressSession,3.2.3,60.21781990231347,
,,,,cyan,brown,cyan,braun,right,,,,,0,36,36,43,,,,,,,,,right,1.0022767999907956,723.6477542000357,None,,,,,lb,002,2019_Sep_28_0931,StressSession,3.2.3,60.21781990231347,
,,,,gelb,brown,gelb,braun,right,,,,,0,37,37,52,,,,,,,,,left,0.8992595999734476,725.1741232000059,None,,,,,lb,002,2019_Sep_28_0931,StressSession,3.2.3,60.21781990231347,
,,,,braun,black,braun,schwarz,right,,,,,0,38,38,81,,,,,,,,,right,0.6353684000205249,726.629736800096,None,,,,,lb,002,2019_Sep_28_0931,StressSession,3.2.3,60.21781990231347,
,,,,braun,green,braun,gruen,right,,,,,0,39,39,84,,,,,,,,,right,0.8626768999965861,727.7870930000208,None,,,,,lb,002,2019_Sep_28_0931,StressSession,3.2.3,60.21781990231347,
,,,,weiß,magenta,magenta,weiß,left,,,,,0,40,40,204,,,,,,,,,left,0.8054223000071943,729.1959274000255,None,,,,,lb,002,2019_Sep_28_0931,StressSession,3.2.3,60.21781990231347,
,,,,magenta,orange,orange,magenta,left,,,,,0,41,41,142,,,,,,,,,left,1.2020743999164551,730.5510348000098,None,,,,,lb,002,2019_Sep_28_0931,StressSession,3.2.3,60.21781990231347,
,,,,gruen,cyan,gruen,cyan,right,,,,,0,42,42,21,,,,,,,,,right,0.7698923000134528,732.3115639000898,None,,,,,lb,002,2019_Sep_28_0931,StressSession,3.2.3,60.21781990231347,
,,,,gruen,red,rot,gruen,left,,,,,0,43,43,138,,,,,,,,,left,0.9319762999657542,733.621334000025,None,,,,,lb,002,2019_Sep_28_0931,StressSession,3.2.3,60.21781990231347,
,,,,orange,brown,braun,orange,left,,,,,0,44,44,171,,,,,,,,,left,1.0370578999863937,735.115824000095,None,,,,,lb,002,2019_Sep_28_0931,StressSession,3.2.3,60.21781990231347,
,,,,orange,blue,blau,orange,left,,,,,0,45,45,175,,,,,,,,,left,0.9692130000330508,736.6962733999826,None,,,,,lb,002,2019_Sep_28_0931,StressSession,3.2.3,60.21781990231347,
,,,,braun,yellow,gelb,braun,left,,,,,0,46,46,197,,,,,,,,,left,0.9863904000958428,738.2067422000691,None,,,,,lb,002,2019_Sep_28_0931,StressSession,3.2.3,60.21781990231347,
,,,,orange,yellow,orange,gelb,right,,,,,0,47,47,69,,,,,,,,,right,0.9447339000180364,739.7283443000633,None,,,,,lb,002,2019_Sep_28_0931,StressSession,3.2.3,60.21781990231347,
,,,,orange,magenta,magenta,orange,left,,,,,0,48,48,177,,,,,,,,,left,0.833255699952133,741.2084250000771,None,,,,,lb,002,2019_Sep_28_0931,StressSession,3.2.3,60.21781990231347,
,,,,braun,magenta,magenta,braun,left,,,,,0,49,49,195,,,,,,,,,left,0.7604798999382183,742.5856755999848,None,,,,,lb,002,2019_Sep_28_0931,StressSession,3.2.3,60.21781990231347,
,,,,braun,green,gruen,braun,left,,,,,0,50,50,194,,,,,,,,,left,0.9074771000305191,743.877692900016,None,,,,,lb,002,2019_Sep_28_0931,StressSession,3.2.3,60.21781990231347,
,,,,gelb,red,gelb,rot,right,,,,,0,51,51,55,,,,,,,,,right,0.7975079999305308,745.3394819999812,None,,,,,lb,002,2019_Sep_28_0931,StressSession,3.2.3,60.21781990231347,
,,,,rot,black,schwarz,rot,left,,,,,0,52,52,119,,,,,,,,,left,0.7407936999807134,746.6841485000914,None,,,,,lb,002,2019_Sep_28_0931,StressSession,3.2.3,60.21781990231347,
,,,,cyan,purple,violett,cyan,left,,,,,0,53,53,152,,,,,,,,,left,0.8089538000058383,747.9759851000272,None,,,,,lb,002,2019_Sep_28_0931,StressSession,3.2.3,60.21781990231347,
,,,,orange,purple,violett,orange,left,,,,,0,54,54,170,,,,,,,,,left,0.9386633000103757,749.3345284999814,None,,,,,lb,002,2019_Sep_28_0931,StressSession,3.2.3,60.21781990231347,
,,,,braun,purple,braun,violett,right,,,,,0,55,55,89,,,,,,,,,right,0.795801299973391,750.8215213000076,None,,,,,lb,002,2019_Sep_28_0931,StressSession,3.2.3,60.21781990231347,
,,,,schwarz,red,rot,schwarz,left,,,,,0,56,56,210,,,,,,,,,left,1.254252899903804,752.1707786000334,None,,,,,lb,002,2019_Sep_28_0931,StressSession,3.2.3,60.21781990231347,
,,,,weiß,yellow,gelb,weiß,left,,,,,0,57,57,206,,,,,,,,,left,0.7737003000220284,753.9716081999941,None,,,,,lb,002,2019_Sep_28_0931,StressSession,3.2.3,60.21781990231347,
,,,,weiß,green,weiß,gruen,right,,,,,0,58,58,93,,,,,,,,,right,0.6451184999896213,755.2680444000289,None,,,,,lb,002,2019_Sep_28_0931,StressSession,3.2.3,60.21781990231347,
,,,,blau,white,blau,weiß,right,,,,,0,59,59,17,,,,,,,,,right,0.7883893999969587,756.4375066000503,None,,,,,lb,002,2019_Sep_28_0931,StressSession,3.2.3,60.21781990231347,
,,,,braun,white,weiß,braun,left,,,,,0,60,60,190,,,,,,,,,left,1.0497874999418855,757.7674097000854,None,,,,,lb,002,2019_Sep_28_0931,StressSession,3.2.3,60.21781990231347,
,,,,rot,yellow,gelb,rot,left,,,,,0,61,61,114,,,,,,,,,left,0.9776329000014812,759.3673655000748,None,,,,,lb,002,2019_Sep_28_0931,StressSession,3.2.3,60.21781990231347,
,,,,schwarz,magenta,magenta,schwarz,left,,,,,0,62,62,213,,,,,,,,,left,0.743026899988763,760.8898652000353,None,,,,,lb,002,2019_Sep_28_0931,StressSession,3.2.3,60.21781990231347,
,,,,orange,white,weiß,orange,left,,,,,0,63,63,172,,,,,,,,,left,0.870155300013721,762.1947302999906,None,,,,,lb,002,2019_Sep_28_0931,StressSession,3.2.3,60.21781990231347,
,,,,weiß,black,schwarz,weiß,left,,,,,0,64,64,200,,,,,,,,,left,0.7107573000248522,763.6186851999955,None,,,,,lb,002,2019_Sep_28_0931,StressSession,3.2.3,60.21781990231347,
,,,,cyan,orange,cyan,orange,right,,,,,0,65,65,41,,,,,,,,,right,1.346000500023365,764.8874746999936,None,,,,,lb,002,2019_Sep_28_0931,StressSession,3.2.3,60.21781990231347,
,,,,gelb,green,gelb,gruen,right,,,,,0,66,66,57,,,,,,,,,right,0.910457200021483,766.7947119000601,None,,,,,lb,002,2019_Sep_28_0931,StressSession,3.2.3,60.21781990231347,
,,,,magenta,orange,magenta,orange,right,,,,,0,67,67,32,,,,,,,,,right,0.9772983000148088,768.2396634999895,None,,,,,lb,002,2019_Sep_28_0931,StressSession,3.2.3,60.21781990231347,
,,,,cyan,red,rot,cyan,left,,,,,0,68,68,156,,,,,,,,,left,0.7290892999153584,769.7518510000082,None,,,,,lb,002,2019_Sep_28_0931,StressSession,3.2.3,60.21781990231347,
,,,,weiß,purple,violett,weiß,left,,,,,0,69,69,208,,,,,,,,,left,0.774862099904567,771.0343051000964,None,,,,,lb,002,2019_Sep_28_0931,StressSession,3.2.3,60.21781990231347,
,,,,braun,magenta,braun,magenta,right,,,,,0,70,70,85,,,,,,,,,right,0.7624579999828711,772.3507222000044,None,,,,,lb,002,2019_Sep_28_0931,StressSession,3.2.3,60.21781990231347,
,,,,rot,magenta,rot,magenta,right,,,,,0,71,71,2,,,,,,,,,right,0.7789687999757007,773.6622914000181,None,,,,,lb,002,2019_Sep_28_0931,StressSession,3.2.3,60.21781990231347,
,,,,schwarz,brown,schwarz,braun,right,,,,,0,72,72,108,,,,,,,,,right,0.7760917999548838,774.9769782000221,None,,,,,lb,002,2019_Sep_28_0931,StressSession,3.2.3,60.21781990231347,
,,,,rot,green,rot,gruen,right,,,,,0,73,73,1,,,,,,,,,right,1.142082699923776,776.2993686000118,None,,,,,lb,002,2019_Sep_28_0931,StressSession,3.2.3,60.21781990231347,
,,,,cyan,purple,cyan,violett,right,,,,,0,74,74,42,,,,,,,,,right,1.3935591999907047,777.9834829000756,None,,,,,lb,002,2019_Sep_28_0931,StressSession,3.2.3,60.21781990231347,
,,,,violett,orange,violett,orange,right,,,,,0,75,75,79,,,,,,,,,right,1.122268799925223,779.9189420000184,None,,,,,lb,002,2019_Sep_28_0931,StressSession,3.2.3,60.21781990231347,
,,,,rot,black,rot,schwarz,right,,,,,0,76,76,9,,,,,,,,,right,0.7793028999585658,781.5817501000129,None,,,,,lb,002,2019_Sep_28_0931,StressSession,3.2.3,60.21781990231347,
,,,,weiß,black,weiß,schwarz,right,,,,,0,77,77,90,,,,,,,,,right,0.8267020001076162,782.8945122000296,None,,,,,lb,002,2019_Sep_28_0931,StressSession,3.2.3,60.21781990231347,
,,,,orange,black,orange,schwarz,right,,,,,0,78,78,63,,,,,,,,,right,0.77427599998191,784.2668448000913,None,,,,,lb,002,2019_Sep_28_0931,StressSession,3.2.3,60.21781990231347,
,,,,blau,purple,violett,blau,left,,,,,0,79,79,125,,,,,,,,,left,0.7248115000547841,785.5965360000264,None,,,,,lb,002,2019_Sep_28_0931,StressSession,3.2.3,60.21781990231347,
,,,,violett,white,violett,weiß,right,,,,,0,80,80,71,,,,,,,,,right,0.8304426999529824,786.8585941999918,None,,,,,lb,002,2019_Sep_28_0931,StressSession,3.2.3,60.21781990231347,
,,,,cyan,yellow,cyan,gelb,right,,,,,0,81,81,40,,,,,,,,,right,0.8291649000020698,788.235860100016,None,,,,,lb,002,2019_Sep_28_0931,StressSession,3.2.3,60.21781990231347,
,,,,violett,red,rot,violett,left,,,,,0,82,82,183,,,,,,,,,left,0.7920715999789536,789.6169615000254,None,,,,,lb,002,2019_Sep_28_0931,StressSession,3.2.3,60.21781990231347,
,,,,schwarz,green,schwarz,gruen,right,,,,,0,83,83,102,,,,,,,,,right,0.7385164999868721,790.9665785999969,None,,,,,lb,002,2019_Sep_28_0931,StressSession,3.2.3,60.21781990231347,
,,,,schwarz,white,schwarz,weiß,right,,,,,0,84,84,109,,,,,,,,,right,0.8396267999196425,792.2498169000028,None,,,,,lb,002,2019_Sep_28_0931,StressSession,3.2.3,60.21781990231347,
,,,,weiß,red,rot,weiß,left,,,,,0,85,85,201,,,,,,,,,left,0.7721995000028983,793.6370851000538,None,,,,,lb,002,2019_Sep_28_0931,StressSession,3.2.3,60.21781990231347,
,,,,magenta,red,rot,magenta,left,,,,,0,86,86,147,,,,,,,,,left,0.9585661999881268,794.9464652000461,None,,,,,lb,002,2019_Sep_28_0931,StressSession,3.2.3,60.21781990231347,
,,,,braun,blue,braun,blau,right,,,,,0,87,87,83,,,,,,,,,right,0.7740470999851823,796.4598733000457,None,,,,,lb,002,2019_Sep_28_0931,StressSession,3.2.3,60.21781990231347,
,,,,gelb,black,schwarz,gelb,left,,,,,0,88,88,164,,,,,,,,,left,0.8116156000178307,797.7816213000333,None,,,,,lb,002,2019_Sep_28_0931,StressSession,3.2.3,60.21781990231347,
,,,,rot,purple,violett,rot,left,,,,,0,89,89,116,,,,,,,,,left,0.7102326999884099,799.1470989000518,None,,,,,lb,002,2019_Sep_28_0931,StressSession,3.2.3,60.21781990231347,
,,,,orange,green,gruen,orange,left,,,,,0,90,90,176,,,,,,,,,right,0.786952199996449,800.4145780000836,None,,,,,lb,002,2019_Sep_28_0931,StressSession,3.2.3,60.21781990231347,
,,,,schwarz,purple,violett,schwarz,left,,,,,0,91,91,217,,,,,,,,,left,1.0742814000695944,801.750710500055,None,,,,,lb,002,2019_Sep_28_0931,StressSession,3.2.3,60.21781990231347,
,,,,gelb,cyan,cyan,gelb,left,,,,,0,92,92,169,,,,,,,,,left,0.7835927999112755,803.3775012000697,None,,,,,lb,002,2019_Sep_28_0931,StressSession,3.2.3,60.21781990231347,
,,,,gruen,brown,gruen,braun,right,,,,,0,93,93,25,,,,,,,,,right,0.8671012000413612,804.7099951000419,None,,,,,lb,002,2019_Sep_28_0931,StressSession,3.2.3,60.21781990231347,
,,,,weiß,red,weiß,rot,right,,,,,0,94,94,91,,,,,,,,,right,1.1166604000609368,806.1404052000726,None,,,,,lb,002,2019_Sep_28_0931,StressSession,3.2.3,60.21781990231347,
,,,,braun,orange,braun,orange,right,,,,,0,95,95,88,,,,,,,,,right,0.8117773999692872,807.7972554999869,None,,,,,lb,002,2019_Sep_28_0931,StressSession,3.2.3,60.21781990231347,
,,,,weiß,brown,weiß,braun,right,,,,,0,96,96,99,,,,,,,,,right,1.142328800051473,809.1558030000888,None,,,,,lb,002,2019_Sep_28_0931,StressSession,3.2.3,60.21781990231347,
,,,,schwarz,blue,schwarz,blau,right,,,,,0,97,97,101,,,,,,,,,right,0.9058026999700814,810.8553893000353,None,,,,,lb,002,2019_Sep_28_0931,StressSession,3.2.3,60.21781990231347,
,,,,blau,green,gruen,blau,left,,,,,0,98,98,120,,,,,,,,,left,0.80588840006385,812.2991423000349,None,,,,,lb,002,2019_Sep_28_0931,StressSession,3.2.3,60.21781990231347,
,,,,rot,white,rot,weiß,right,,,,,0,99,99,8,,,,,,,,,right,0.7817806999664754,813.6996749000391,None,,,,,lb,002,2019_Sep_28_0931,StressSession,3.2.3,60.21781990231347,
,,,,rot,orange,rot,orange,right,,,,,0,100,100,5,,,,,,,,,right,0.8222027999581769,815.0109708000673,None,,,,,lb,002,2019_Sep_28_0931,StressSession,3.2.3,60.21781990231347,
,,,,gruen,white,gruen,weiß,right,,,,,0,101,101,26,,,,,,,,,left,1.074784200056456,816.3902336000465,None,,,,,lb,002,2019_Sep_28_0931,StressSession,3.2.3,60.21781990231347,
,,,,orange,black,schwarz,orange,left,,,,,0,102,102,173,,,,,,,,,left,0.9357699999818578,817.993710000068,None,,,,,lb,002,2019_Sep_28_0931,StressSession,3.2.3,60.21781990231347,
,,,,blau,cyan,cyan,blau,left,,,,,0,103,103,122,,,,,,,,,left,0.7863907000282779,819.4708570000948,None,,,,,lb,002,2019_Sep_28_0931,StressSession,3.2.3,60.21781990231347,
,,,,orange,magenta,orange,magenta,right,,,,,0,104,104,67,,,,,,,,,right,0.9926367000443861,820.8084394000471,None,,,,,lb,002,2019_Sep_28_0931,StressSession,3.2.3,60.21781990231347,
,,,,blau,red,rot,blau,left,,,,,0,105,105,129,,,,,,,,,left,0.9236308999825269,822.3494793000864,None,,,,,lb,002,2019_Sep_28_0931,StressSession,3.2.3,60.21781990231347,
,,,,braun,red,rot,braun,left,,,,,0,106,106,192,,,,,,,,,left,1.064197100000456,823.8170841999818,None,,,,,lb,002,2019_Sep_28_0931,StressSession,3.2.3,60.21781990231347,
,,,,rot,orange,orange,rot,left,,,,,0,107,107,115,,,,,,,,,left,0.924394299974665,825.4368963000597,None,,,,,lb,002,2019_Sep_28_0931,StressSession,3.2.3,60.21781990231347,
,,,,gruen,red,gruen,rot,right,,,,,0,108,108,28,,,,,,,,,right,0.8678781999042258,826.885551400017,None,,,,,lb,002,2019_Sep_28_0931,StressSession,3.2.3,60.21781990231347,
,,,,gelb,black,gelb,schwarz,right,,,,,0,109,109,54,,,,,,,,,right,0.7120773000642657,828.3051242000656,None,,,,,lb,002,2019_Sep_28_0931,StressSession,3.2.3,60.21781990231347,
,,,,orange,purple,orange,violett,right,,,,,0,110,110,60,,,,,,,,,right,0.9405073000816628,829.5725626000203,None,,,,,lb,002,2019_Sep_28_0931,StressSession,3.2.3,60.21781990231347,
,,,,gelb,white,weiß,gelb,left,,,,,0,111,111,163,,,,,,,,,left,0.8678344000363722,831.0533410999924,None,,,,,lb,002,2019_Sep_28_0931,StressSession,3.2.3,60.21781990231347,
,,,,braun,blue,blau,braun,left,,,,,0,112,112,193,,,,,,,,,left,1.044796000001952,832.4687921000877,None,,,,,lb,002,2019_Sep_28_0931,StressSession,3.2.3,60.21781990231347,
,,,,gruen,brown,braun,gruen,left,,,,,0,113,113,135,,,,,,,,,left,1.1113956000190228,834.0819745000917,None,,,,,lb,002,2019_Sep_28_0931,StressSession,3.2.3,60.21781990231347,
,,,,gelb,orange,orange,gelb,left,,,,,0,114,114,160,,,,,,,,,right,1.118769499938935,835.7386541999876,None,,,,,lb,002,2019_Sep_28_0931,StressSession,3.2.3,60.21781990231347,
,,,,rot,yellow,rot,gelb,right,,,,,0,115,115,4,,,,,,,,,left,1.0478256000205874,837.3937648000428,None,,,,,lb,002,2019_Sep_28_0931,StressSession,3.2.3,60.21781990231347,
,,,,gelb,orange,gelb,orange,right,,,,,0,116,116,50,,,,,,,,,right,1.7771419000346214,838.9921703999862,None,,,,,lb,002,2019_Sep_28_0931,StressSession,3.2.3,60.21781990231347,
,,,,blau,brown,blau,braun,right,,,,,0,117,117,16,,,,,,,,,left,0.8815799000440165,841.3117267000489,None,,,,,lb,002,2019_Sep_28_0931,StressSession,3.2.3,60.21781990231347,
,,,,rot,white,weiß,rot,left,,,,,0,118,118,118,,,,,,,,,left,1.5435125000076368,842.7296943999827,None,,,,,lb,002,2019_Sep_28_0931,StressSession,3.2.3,60.21781990231347,
,,,,gruen,yellow,gruen,gelb,right,,,,,0,119,119,22,,,,,,,,,right,1.8643975000595674,844.8006414000411,None,,,,,lb,002,2019_Sep_28_0931,StressSession,3.2.3,60.21781990231347,
,,,,gelb,cyan,gelb,cyan,right,,,,,0,120,120,59,,,,,,,,,right,1.290286999894306,847.2069736000849,None,,,,,lb,002,2019_Sep_28_0931,StressSession,3.2.3,60.21781990231347,
,,,,magenta,blue,magenta,blau,right,,,,,0,121,121,38,,,,,,,,,right,0.8839044000487775,849.0538934000069,None,,,,,lb,002,2019_Sep_28_0931,StressSession,3.2.3,60.21781990231347,
,,,,magenta,white,magenta,weiß,right,,,,,0,122,122,35,,,,,,,,,right,0.9011355999391526,850.4693725000834,None,,,,,lb,002,2019_Sep_28_0931,StressSession,3.2.3,60.21781990231347,
,,,,braun,red,braun,rot,right,,,,,0,123,123,82,,,,,,,,,right,1.0354532999917865,851.9180261000292,None,,,,,lb,002,2019_Sep_28_0931,StressSession,3.2.3,60.21781990231347,
,,,,magenta,green,gruen,magenta,left,,,,,0,124,124,149,,,,,,,,,left,1.2192483000690117,853.5020546000451,None,,,,,lb,002,2019_Sep_28_0931,StressSession,3.2.3,60.21781990231347,
,,,,rot,purple,rot,violett,right,,,,,0,125,125,6,,,,,,,,,right,0.7315251999534667,855.2616522000171,None,,,,,lb,002,2019_Sep_28_0931,StressSession,3.2.3,60.21781990231347,
,,,,gruen,purple,violett,gruen,left,,,,,0,126,126,134,,,,,,,,,left,0.995363499969244,856.549508200027,None,,,,,lb,002,2019_Sep_28_0931,StressSession,3.2.3,60.21781990231347,
,,,,blau,purple,blau,violett,right,,,,,0,127,127,15,,,,,,,,,right,0.754607499926351,858.0944114000304,None,,,,,lb,002,2019_Sep_28_0931,StressSession,3.2.3,60.21781990231347,
,,,,blau,yellow,blau,gelb,right,,,,,0,128,128,13,,,,,,,,,right,0.8419641000218689,859.3832532999804,None,,,,,lb,002,2019_Sep_28_0931,StressSession,3.2.3,60.21781990231347,
,,,,orange,red,rot,orange,left,,,,,0,129,129,174,,,,,,,,,left,1.2044923000503331,860.7811390000861,None,,,,,lb,002,2019_Sep_28_0931,StressSession,3.2.3,60.21781990231347,
,,,,gelb,blue,blau,gelb,left,,,,,0,130,130,166,,,,,,,,,left,0.9388067000545561,862.5261825000634,None,,,,,lb,002,2019_Sep_28_0931,StressSession,3.2.3,60.21781990231347,
,,,,violett,black,schwarz,violett,left,,,,,0,131,131,182,,,,,,,,,left,0.9729456999339163,864.0123639000813,None,,,,,lb,002,2019_Sep_28_0931,StressSession,3.2.3,60.21781990231347,
,,,,rot,cyan,rot,cyan,right,,,,,0,132,132,3,,,,,,,,,right,0.8360096999676898,865.5250832000747,None,,,,,lb,002,2019_Sep_28_0931,StressSession,3.2.3,60.21781990231347,
,,,,cyan,red,cyan,rot,right,,,,,0,133,133,46,,,,,,,,,right,0.7718100999481976,866.9093856000109,None,,,,,lb,002,2019_Sep_28_0931,StressSession,3.2.3,60.21781990231347,
,,,,weiß,blue,weiß,blau,right,,,,,0,134,134,92,,,,,,,,,right,1.3544883000431582,868.2224745000713,None,,,,,lb,002,2019_Sep_28_0931,StressSession,3.2.3,60.21781990231347,
,,,,orange,cyan,orange,cyan,right,,,,,0,135,135,68,,,,,,,,,left,0.9655193999642506,870.1317114999983,None,,,,,lb,002,2019_Sep_28_0931,StressSession,3.2.3,60.21781990231347,
,,,,magenta,yellow,magenta,gelb,right,,,,,0,136,136,31,,,,,,,,,right,0.9476834000088274,871.6455081000458,None,,,,,lb,002,2019_Sep_28_0931,StressSession,3.2.3,60.21781990231347,
,,,,blau,black,schwarz,blau,left,,,,,0,137,137,128,,,,,,,,,left,0.7943510999903083,873.1430242999922,None,,,,,lb,002,2019_Sep_28_0931,StressSession,3.2.3,60.21781990231347,
,,,,blau,black,blau,schwarz,right,,,,,0,138,138,18,,,,,,,,,right,0.6029732999159023,874.4865337000228,None,,,,,lb,002,2019_Sep_28_0931,StressSession,3.2.3,60.21781990231347,
,,,,braun,orange,orange,braun,left,,,,,0,139,139,198,,,,,,,,,left,1.0836976999416947,875.6304992000805,None,,,,,lb,002,2019_Sep_28_0931,StressSession,3.2.3,60.21781990231347,
,,,,cyan,yellow,gelb,cyan,left,,,,,0,140,140,150,,,,,,,,,left,0.9485458000563085,877.2445778000401,None,,,,,lb,002,2019_Sep_28_0931,StressSession,3.2.3,60.21781990231347,
,,,,schwarz,yellow,gelb,schwarz,left,,,,,0,141,141,215,,,,,,,,,left,1.0520532000809908,878.7411378000397,None,,,,,lb,002,2019_Sep_28_0931,StressSession,3.2.3,60.21781990231347,
,,,,cyan,blue,blau,cyan,left,,,,,0,142,142,157,,,,,,,,,left,0.7395331000443548,880.3417837000452,None,,,,,lb,002,2019_Sep_28_0931,StressSession,3.2.3,60.21781990231347,
,,,,cyan,black,cyan,schwarz,right,,,,,0,143,143,45,,,,,,,,,right,0.7218540000030771,881.6081986000063,None,,,,,lb,002,2019_Sep_28_0931,StressSession,3.2.3,60.21781990231347,
,,,,cyan,white,weiß,cyan,left,,,,,0,144,144,154,,,,,,,,,left,0.7193966000340879,882.8577103000134,None,,,,,lb,002,2019_Sep_28_0931,StressSession,3.2.3,60.21781990231347,
,,,,rot,blue,rot,blau,right,,,,,0,145,145,0,,,,,,,,,right,0.8403737000189722,884.1062722000061,None,,,,,lb,002,2019_Sep_28_0931,StressSession,3.2.3,60.21781990231347,
,,,,gelb,red,rot,gelb,left,,,,,0,146,146,165,,,,,,,,,left,0.996952399960719,885.4844217000064,None,,,,,lb,002,2019_Sep_28_0931,StressSession,3.2.3,60.21781990231347,
,,,,cyan,green,cyan,gruen,right,,,,,0,147,147,48,,,,,,,,,right,0.8226478000869974,887.0266845000442,None,,,,,lb,002,2019_Sep_28_0931,StressSession,3.2.3,60.21781990231347,
,,,,magenta,purple,violett,magenta,left,,,,,0,148,148,143,,,,,,,,,left,0.8399171000346541,888.3933192000259,None,,,,,lb,002,2019_Sep_28_0931,StressSession,3.2.3,60.21781990231347,
,,,,braun,white,braun,weiß,right,,,,,0,149,149,80,,,,,,,,,left,2.1403990000253543,889.7889344000723,None,,,,,lb,002,2019_Sep_28_0931,StressSession,3.2.3,60.21781990231347,
,,,,schwarz,yellow,schwarz,gelb,right,,,,,0,150,150,105,,,,,,,,,right,1.9724873000523075,892.4766903000418,None,,,,,lb,002,2019_Sep_28_0931,StressSession,3.2.3,60.21781990231347,
,,,,schwarz,brown,braun,schwarz,left,,,,,0,151,151,218,,,,,,,,,left,1.7416063999990001,894.9874660000205,None,,,,,lb,002,2019_Sep_28_0931,StressSession,3.2.3,60.21781990231347,
,,,,gelb,purple,gelb,violett,right,,,,,0,152,152,51,,,,,,,,,right,0.9047000999562442,897.2566160000861,None,,,,,lb,002,2019_Sep_28_0931,StressSession,3.2.3,60.21781990231347,
,,,,weiß,yellow,weiß,gelb,right,,,,,0,153,153,96,,,,,,,,,right,1.169747699983418,898.6882141000824,None,,,,,lb,002,2019_Sep_28_0931,StressSession,3.2.3,60.21781990231347,
,,,,violett,brown,braun,violett,left,,,,,0,154,154,180,,,,,,,,,left,0.8464139000279829,900.4026375000831,None,,,,,lb,002,2019_Sep_28_0931,StressSession,3.2.3,60.21781990231347,
,,,,blau,orange,blau,orange,right,,,,,0,155,155,14,,,,,,,,,right,1.0955423000268638,901.8015562000219,None,,,,,lb,002,2019_Sep_28_0931,StressSession,3.2.3,60.21781990231347,
,,,,gruen,blue,gruen,blau,right,,,,,0,156,156,29,,,,,,,,,right,0.9285094999941066,903.4489615000784,None,,,,,lb,002,2019_Sep_28_0931,StressSession,3.2.3,60.21781990231347,
,,,,violett,white,weiß,violett,left,,,,,0,157,157,181,,,,,,,,,left,1.0665809999918565,904.9185939000454,None,,,,,lb,002,2019_Sep_28_0931,StressSession,3.2.3,60.21781990231347,
,,,,weiß,orange,orange,weiß,left,,,,,0,158,158,207,,,,,,,,,left,0.9982562999939546,906.5388848000439,None,,,,,lb,002,2019_Sep_28_0931,StressSession,3.2.3,60.21781990231347,
,,,,magenta,green,magenta,gruen,right,,,,,0,159,159,39,,,,,,,,,right,0.9102670000866055,908.0748738000402,None,,,,,lb,002,2019_Sep_28_0931,StressSession,3.2.3,60.21781990231347,
,,,,gruen,black,schwarz,gruen,left,,,,,0,160,160,137,,,,,,,,,left,0.8036768999882042,909.5182634000666,None,,,,,lb,002,2019_Sep_28_0931,StressSession,3.2.3,60.21781990231347,
,,,,gruen,black,gruen,schwarz,right,,,,,0,161,161,27,,,,,,,,,right,0.7595873000100255,910.8500122000696,None,,,,,lb,002,2019_Sep_28_0931,StressSession,3.2.3,60.21781990231347,
,,,,rot,magenta,magenta,rot,left,,,,,0,162,162,112,,,,,,,,,left,1.018295800080523,912.1507654000307,None,,,,,lb,002,2019_Sep_28_0931,StressSession,3.2.3,60.21781990231347,
,,,,violett,green,gruen,violett,left,,,,,0,163,163,185,,,,,,,,,left,0.9540861999848858,913.7196235000156,None,,,,,lb,002,2019_Sep_28_0931,StressSession,3.2.3,60.21781990231347,
,,,,gelb,magenta,magenta,gelb,left,,,,,0,164,164,168,,,,,,,,,left,1.0459643999347463,915.2190394999925,None,,,,,lb,002,2019_Sep_28_0931,StressSession,3.2.3,60.21781990231347,
,,,,cyan,blue,cyan,blau,right,,,,,0,165,165,47,,,,,,,,,right,1.1614497000118718,916.7995406000409,None,,,,,lb,002,2019_Sep_28_0931,StressSession,3.2.3,60.21781990231347,
,,,,magenta,brown,magenta,braun,right,,,,,0,166,166,34,,,,,,,,,right,2.3353728000074625,918.5217761000386,None,,,,,lb,002,2019_Sep_28_0931,StressSession,3.2.3,60.21781990231347,
,,,,orange,yellow,gelb,orange,left,,,,,0,167,167,179,,,,,,,,,right,0.8486096999840811,921.4005530000431,None,,,,,lb,002,2019_Sep_28_0931,StressSession,3.2.3,60.21781990231347,
,,,,cyan,magenta,cyan,magenta,right,,,,,0,168,168,49,,,,,,,,,right,1.4792891000397503,922.8017640000908,None,,,,,lb,002,2019_Sep_28_0931,StressSession,3.2.3,60.21781990231347,
,,,,orange,brown,orange,braun,right,,,,,0,169,169,61,,,,,,,,,right,1.510162299964577,924.8350412000436,None,,,,,lb,002,2019_Sep_28_0931,StressSession,3.2.3,60.21781990231347,
,,,,magenta,cyan,cyan,magenta,left,,,,,0,170,170,140,,,,,,,,,left,1.0116334999911487,926.9015549999895,None,,,,,lb,002,2019_Sep_28_0931,StressSession,3.2.3,60.21781990231347,
,,,,weiß,purple,weiß,violett,right,,,,,0,171,171,98,,,,,,,,,right,0.8403661000775173,928.4647314000176,None,,,,,lb,002,2019_Sep_28_0931,StressSession,3.2.3,60.21781990231347,
,,,,gruen,orange,orange,gruen,left,,,,,0,172,172,133,,,,,,,,,left,1.1523723000427708,929.849106800044,None,,,,,lb,002,2019_Sep_28_0931,StressSession,3.2.3,60.21781990231347,
,,,,schwarz,red,schwarz,rot,right,,,,,0,173,173,100,,,,,,,,,right,0.9631693999981508,931.5344351000385,None,,,,,lb,002,2019_Sep_28_0931,StressSession,3.2.3,60.21781990231347,
,,,,magenta,brown,braun,magenta,left,,,,,0,174,174,144,,,,,,,,,left,1.0059858999447897,933.0510639999993,None,,,,,lb,002,2019_Sep_28_0931,StressSession,3.2.3,60.21781990231347,
,,,,schwarz,white,weiß,schwarz,left,,,,,0,175,175,219,,,,,,,,,left,1.060321099939756,934.6129757000599,None,,,,,lb,002,2019_Sep_28_0931,StressSession,3.2.3,60.21781990231347,
,,,,braun,cyan,cyan,braun,left,,,,,0,176,176,196,,,,,,,,,left,0.7227345999563113,936.2144662000937,None,,,,,lb,002,2019_Sep_28_0931,StressSession,3.2.3,60.21781990231347,
,,,,violett,green,violett,gruen,right,,,,,0,177,177,75,,,,,,,,,right,0.6712064000312239,937.4822238000343,None,,,,,lb,002,2019_Sep_28_0931,StressSession,3.2.3,60.21781990231347,
,,,,magenta,blue,blau,magenta,left,,,,,0,178,178,148,,,,,,,,,left,0.9104190999642015,938.6988237000769,None,,,,,lb,002,2019_Sep_28_0931,StressSession,3.2.3,60.21781990231347,
,,,,gruen,cyan,cyan,gruen,left,,,,,0,179,179,131,,,,,,,,,left,0.7495587000157684,940.1634630000917,None,,,,,lb,002,2019_Sep_28_0931,StressSession,3.2.3,60.21781990231347,
,,,,magenta,black,schwarz,magenta,left,,,,,0,180,180,146,,,,,,,,,left,0.8215945999836549,941.4674873000477,None,,,,,lb,002,2019_Sep_28_0931,StressSession,3.2.3,60.21781990231347,
,,,,violett,cyan,violett,cyan,right,,,,,0,181,181,77,,,,,,,,,right,0.8146076999837533,942.8351743000094,None,,,,,lb,002,2019_Sep_28_0931,StressSession,3.2.3,60.21781990231347,
,,,,blau,white,weiß,blau,left,,,,,0,182,182,127,,,,,,,,,left,0.725622900063172,944.196006000042,None,,,,,lb,002,2019_Sep_28_0931,StressSession,3.2.3,60.21781990231347,
,,,,violett,cyan,cyan,violett,left,,,,,0,183,183,187,,,,,,,,,left,1.2643731998978183,945.4806610000087,None,,,,,lb,002,2019_Sep_28_0931,StressSession,3.2.3,60.21781990231347,
,,,,rot,green,gruen,rot,left,,,,,0,184,184,111,,,,,,,,,left,1.1345888000214472,947.2906927000731,None,,,,,lb,002,2019_Sep_28_0931,StressSession,3.2.3,60.21781990231347,
,,,,magenta,black,magenta,schwarz,right,,,,,0,185,185,36,,,,,,,,,right,0.762621899950318,948.96755270008,None,,,,,lb,002,2019_Sep_28_0931,StressSession,3.2.3,60.21781990231347,
,,,,cyan,green,gruen,cyan,left,,,,,0,186,186,158,,,,,,,,,left,0.8663489000173286,950.2548806000268,None,,,,,lb,002,2019_Sep_28_0931,StressSession,3.2.3,60.21781990231347,
,,,,schwarz,orange,schwarz,orange,right,,,,,0,187,187,106,,,,,,,,,right,0.9389400000218302,951.678315200028,None,,,,,lb,002,2019_Sep_28_0931,StressSession,3.2.3,60.21781990231347,
,,,,schwarz,cyan,cyan,schwarz,left,,,,,0,188,188,214,,,,,,,,,left,1.0707614000421017,953.1544669000432,None,,,,,lb,002,2019_Sep_28_0931,StressSession,3.2.3,60.21781990231347,
,,,,weiß,blue,blau,weiß,left,,,,,0,189,189,202,,,,,,,,,left,0.9561982000013813,954.7737166000297,None,,,,,lb,002,2019_Sep_28_0931,StressSession,3.2.3,60.21781990231347,
,,,,gruen,blue,blau,gruen,left,,,,,0,190,190,139,,,,,,,,,left,0.8169764999765903,956.2568355000112,None,,,,,lb,002,2019_Sep_28_0931,StressSession,3.2.3,60.21781990231347,
,,,,blau,red,blau,rot,right,,,,,0,191,191,19,,,,,,,,,right,0.6597933999728411,957.6134125000099,None,,,,,lb,002,2019_Sep_28_0931,StressSession,3.2.3,60.21781990231347,
,,,,weiß,cyan,cyan,weiß,left,,,,,0,192,192,205,,,,,,,,,left,0.6091996999457479,958.8242793000536,None,,,,,lb,002,2019_Sep_28_0931,StressSession,3.2.3,60.21781990231347,
,,,,blau,orange,orange,blau,left,,,,,0,193,193,124,,,,,,,,,left,0.851806600112468,959.989103400032,None,,,,,lb,002,2019_Sep_28_0931,StressSession,3.2.3,60.21781990231347,
,,,,violett,magenta,magenta,violett,left,,,,,0,194,194,186,,,,,,,,,left,1.2760735000483692,961.3971747000469,None,,,,,lb,002,2019_Sep_28_0931,StressSession,3.2.3,60.21781990231347,
,,,,violett,yellow,violett,gelb,right,,,,,0,195,195,78,,,,,,,,,right,0.7506523000774905,963.2024711000267,None,,,,,lb,002,2019_Sep_28_0931,StressSession,3.2.3,60.21781990231347,
,,,,cyan,orange,orange,cyan,left,,,,,0,196,196,151,,,,,,,,,left,0.7184633000288159,964.4913092000643,None,,,,,lb,002,2019_Sep_28_0931,StressSession,3.2.3,60.21781990231347,
,,,,orange,white,orange,weiß,right,,,,,0,197,197,62,,,,,,,,,right,1.0082393999909982,965.7371071000816,None,,,,,lb,002,2019_Sep_28_0931,StressSession,3.2.3,60.21781990231347,
,,,,cyan,brown,braun,cyan,left,,,,,0,198,198,153,,,,,,,,,left,1.0405083000659943,967.2729673000285,None,,,,,lb,002,2019_Sep_28_0931,StressSession,3.2.3,60.21781990231347,
,,,,gelb,blue,gelb,blau,right,,,,,0,199,199,56,,,,,,,,,right,0.8692559999180958,968.8519943000283,None,,,,,lb,002,2019_Sep_28_0931,StressSession,3.2.3,60.21781990231347,
,,,,blau,yellow,gelb,blau,left,,,,,0,200,200,123,,,,,,,,,left,0.69077590003144,970.2544136000797,None,,,,,lb,002,2019_Sep_28_0931,StressSession,3.2.3,60.21781990231347,
,,,,schwarz,green,gruen,schwarz,left,,,,,0,201,201,212,,,,,,,,,left,0.8140349999302998,971.4909787999932,None,,,,,lb,002,2019_Sep_28_0931,StressSession,3.2.3,60.21781990231347,
,,,,braun,cyan,braun,cyan,right,,,,,0,202,202,86,,,,,,,,,right,0.8658077000873163,972.8555100000231,None,,,,,lb,002,2019_Sep_28_0931,StressSession,3.2.3,60.21781990231347,
,,,,weiß,green,gruen,weiß,left,,,,,0,203,203,203,,,,,,,,,left,0.8218489000573754,974.2679425000679,None,,,,,lb,002,2019_Sep_28_0931,StressSession,3.2.3,60.21781990231347,
,,,,violett,blue,blau,violett,left,,,,,0,204,204,184,,,,,,,,,right,0.6822625999338925,975.6229927000822,None,,,,,lb,002,2019_Sep_28_0931,StressSession,3.2.3,60.21781990231347,
,,,,gruen,orange,gruen,orange,right,,,,,0,205,205,23,,,,,,,,,right,1.090666100033559,976.8546561000403,None,,,,,lb,002,2019_Sep_28_0931,StressSession,3.2.3,60.21781990231347,
,,,,weiß,orange,weiß,orange,right,,,,,0,206,206,97,,,,,,,,,right,0.8809796000132337,978.4963440999854,None,,,,,lb,002,2019_Sep_28_0931,StressSession,3.2.3,60.21781990231347,
,,,,violett,blue,violett,blau,right,,,,,0,207,207,74,,,,,,,,,right,1.0079007000895217,979.9216229000594,None,,,,,lb,002,2019_Sep_28_0931,StressSession,3.2.3,60.21781990231347,
,,,,schwarz,orange,orange,schwarz,left,,,,,0,208,208,216,,,,,,,,,left,0.9268280999967828,981.4743802000303,None,,,,,lb,002,2019_Sep_28_0931,StressSession,3.2.3,60.21781990231347,
,,,,gelb,magenta,gelb,magenta,right,,,,,0,209,209,58,,,,,,,,,right,0.8100761000532657,982.9510689000599,None,,,,,lb,002,2019_Sep_28_0931,StressSession,3.2.3,60.21781990231347,
,,,,gruen,white,weiß,gruen,left,,,,,0,210,210,136,,,,,,,,,left,1.3067638999782503,984.3184310999932,None,,,,,lb,002,2019_Sep_28_0931,StressSession,3.2.3,60.21781990231347,
,,,,gruen,purple,gruen,violett,right,,,,,0,211,211,24,,,,,,,,,right,0.7479760000715032,986.165337500046,None,,,,,lb,002,2019_Sep_28_0931,StressSession,3.2.3,60.21781990231347,
,,,,orange,red,orange,rot,right,,,,,0,212,212,64,,,,,,,,,right,0.8154647999908775,987.4657322000712,None,,,,,lb,002,2019_Sep_28_0931,StressSession,3.2.3,60.21781990231347,
,,,,gelb,brown,braun,gelb,left,,,,,0,213,213,162,,,,,,,,,left,1.248005700064823,988.8331693999935,None,,,,,lb,002,2019_Sep_28_0931,StressSession,3.2.3,60.21781990231347,
,,,,rot,brown,braun,rot,left,,,,,0,214,214,117,,,,,,,,,right,0.6561298000160605,990.6091655000346,None,,,,,lb,002,2019_Sep_28_0931,StressSession,3.2.3,60.21781990231347,
,,,,weiß,brown,braun,weiß,left,,,,,0,215,215,209,,,,,,,,,left,1.3312519999453798,991.798143299995,None,,,,,lb,002,2019_Sep_28_0931,StressSession,3.2.3,60.21781990231347,
,,,,blau,brown,braun,blau,left,,,,,0,216,216,126,,,,,,,,,right,0.8542748000472784,993.667189000058,None,,,,,lb,002,2019_Sep_28_0931,StressSession,3.2.3,60.21781990231347,
,,,,violett,magenta,violett,magenta,right,,,,,0,217,217,76,,,,,,,,,right,3.522720400011167,995.0704139000736,None,,,,,lb,002,2019_Sep_28_0931,StressSession,3.2.3,60.21781990231347,
,,,,schwarz,purple,schwarz,violett,right,,,,,0,218,218,107,,,,,,,,,right,1.0663591999327764,999.1520330000203,None,,,,,lb,002,2019_Sep_28_0931,StressSession,3.2.3,60.21781990231347,
,,,,orange,green,orange,gruen,right,,,,,0,219,219,66,,,,,,,,,right,0.9632174000144005,1000.7659221000504,None,,,,,lb,002,2019_Sep_28_0931,StressSession,3.2.3,60.21781990231347,
,,,,,,,,,,,,,,,,,,,,6,10.069,,,,,,,,2019-09-28_09:48:19,,,,lb,002,2019_Sep_28_0931,StressSession,3.2.3,60.21781990231347,
,,,,,,,,,,,,,,,,,,,,,,6,16.691,,,,,,,,,,lb,002,2019_Sep_28_0931,StressSession,3.2.3,60.21781990231347,
,,,,,,,,,,,,,,,,,,,,1,7.731,,,,,,,,,2019-09-28_09:49:11,2019-09-28_09:54:11,,lb,002,2019_Sep_28_0931,StressSession,3.2.3,60.21781990231347,
,,,,,,,,,,,,,,,,,,,,,,,,,,,,,,,,2019-09-28_09:54:21,,,,,,,
