Tick,Color,Tone,TimeDur,WordItem,WordColor,AnsLeft,AnsRight,AnsCorr,tick.thisRepN,tick.thisTrialN,tick.thisN,tick.thisIndex,stroop_trials.thisRepN,stroop_trials.thisTrialN,stroop_trials.thisN,stroop_trials.thisIndex,start_session_two,start_stress_one,end_stress_one,rating_evaluation_one.response,rating_evaluation_one.rt,rating_evaluation_two.response,rating_evaluation_two.rt,start_stress_two,key_resp_part_two_meas.keys,key_resp_part_two_meas.rt,key_resp_part_two_meas.started,key_resp_part_two_meas.stopped,end_stress_two,start_cooldown_measurement,end_cooldown_measurement,end_session_two,participant,session,date,expName,psychopyVersion,frameRate,
1,green,440,1.0,,,,,,0,0,0,0,,,,,2019-10-05_10:28:44,2019-10-05_10:30:30,,,,,,,,,,,,,,,ka,002,2019_Oct_05_1028,StressSession,3.2.3,59.838889828028364,
2,green,440,1.0,,,,,,0,1,1,1,,,,,,,,,,,,,,,,,,,,,ka,002,2019_Oct_05_1028,StressSession,3.2.3,59.838889828028364,
3,green,440,1.0,,,,,,0,2,2,2,,,,,,,,,,,,,,,,,,,,,ka,002,2019_Oct_05_1028,StressSession,3.2.3,59.838889828028364,
4,green,440,1.0,,,,,,0,3,3,3,,,,,,,,,,,,,,,,,,,,,ka,002,2019_Oct_05_1028,StressSession,3.2.3,59.838889828028364,
5,green,440,1.0,,,,,,0,4,4,4,,,,,,,,,,,,,,,,,,,,,ka,002,2019_Oct_05_1028,StressSession,3.2.3,59.838889828028364,
6,green,440,1.0,,,,,,0,5,5,5,,,,,,,,,,,,,,,,,,,,,ka,002,2019_Oct_05_1028,StressSession,3.2.3,59.838889828028364,
7,green,440,1.0,,,,,,0,6,6,6,,,,,,,,,,,,,,,,,,,,,ka,002,2019_Oct_05_1028,StressSession,3.2.3,59.838889828028364,
8,green,440,1.0,,,,,,0,7,7,7,,,,,,,,,,,,,,,,,,,,,ka,002,2019_Oct_05_1028,StressSession,3.2.3,59.838889828028364,
9,green,440,1.0,,,,,,0,8,8,8,,,,,,,,,,,,,,,,,,,,,ka,002,2019_Oct_05_1028,StressSession,3.2.3,59.838889828028364,
10,green,440,1.0,,,,,,0,9,9,9,,,,,,,,,,,,,,,,,,,,,ka,002,2019_Oct_05_1028,StressSession,3.2.3,59.838889828028364,
11,green,440,1.0,,,,,,0,10,10,10,,,,,,,,,,,,,,,,,,,,,ka,002,2019_Oct_05_1028,StressSession,3.2.3,59.838889828028364,
12,green,440,1.0,,,,,,0,11,11,11,,,,,,,,,,,,,,,,,,,,,ka,002,2019_Oct_05_1028,StressSession,3.2.3,59.838889828028364,
13,green,440,1.0,,,,,,0,12,12,12,,,,,,,,,,,,,,,,,,,,,ka,002,2019_Oct_05_1028,StressSession,3.2.3,59.838889828028364,
14,green,440,1.0,,,,,,0,13,13,13,,,,,,,,,,,,,,,,,,,,,ka,002,2019_Oct_05_1028,StressSession,3.2.3,59.838889828028364,
15,green,440,1.0,,,,,,0,14,14,14,,,,,,,,,,,,,,,,,,,,,ka,002,2019_Oct_05_1028,StressSession,3.2.3,59.838889828028364,
16,green,440,1.0,,,,,,0,15,15,15,,,,,,,,,,,,,,,,,,,,,ka,002,2019_Oct_05_1028,StressSession,3.2.3,59.838889828028364,
17,green,440,1.0,,,,,,0,16,16,16,,,,,,,,,,,,,,,,,,,,,ka,002,2019_Oct_05_1028,StressSession,3.2.3,59.838889828028364,
18,green,440,1.0,,,,,,0,17,17,17,,,,,,,,,,,,,,,,,,,,,ka,002,2019_Oct_05_1028,StressSession,3.2.3,59.838889828028364,
19,green,440,1.0,,,,,,0,18,18,18,,,,,,,,,,,,,,,,,,,,,ka,002,2019_Oct_05_1028,StressSession,3.2.3,59.838889828028364,
20,green,440,1.0,,,,,,0,19,19,19,,,,,,,,,,,,,,,,,,,,,ka,002,2019_Oct_05_1028,StressSession,3.2.3,59.838889828028364,
21,green,440,1.0,,,,,,0,20,20,20,,,,,,,,,,,,,,,,,,,,,ka,002,2019_Oct_05_1028,StressSession,3.2.3,59.838889828028364,
22,green,440,1.0,,,,,,0,21,21,21,,,,,,,,,,,,,,,,,,,,,ka,002,2019_Oct_05_1028,StressSession,3.2.3,59.838889828028364,
23,green,440,1.0,,,,,,0,22,22,22,,,,,,,,,,,,,,,,,,,,,ka,002,2019_Oct_05_1028,StressSession,3.2.3,59.838889828028364,
24,green,440,1.0,,,,,,0,23,23,23,,,,,,,,,,,,,,,,,,,,,ka,002,2019_Oct_05_1028,StressSession,3.2.3,59.838889828028364,
25,green,440,1.0,,,,,,0,24,24,24,,,,,,,,,,,,,,,,,,,,,ka,002,2019_Oct_05_1028,StressSession,3.2.3,59.838889828028364,
26,green,440,1.0,,,,,,0,25,25,25,,,,,,,,,,,,,,,,,,,,,ka,002,2019_Oct_05_1028,StressSession,3.2.3,59.838889828028364,
27,green,440,1.0,,,,,,0,26,26,26,,,,,,,,,,,,,,,,,,,,,ka,002,2019_Oct_05_1028,StressSession,3.2.3,59.838889828028364,
28,green,440,1.0,,,,,,0,27,27,27,,,,,,,,,,,,,,,,,,,,,ka,002,2019_Oct_05_1028,StressSession,3.2.3,59.838889828028364,
29,green,440,1.0,,,,,,0,28,28,28,,,,,,,,,,,,,,,,,,,,,ka,002,2019_Oct_05_1028,StressSession,3.2.3,59.838889828028364,
30,green,440,1.0,,,,,,0,29,29,29,,,,,,,,,,,,,,,,,,,,,ka,002,2019_Oct_05_1028,StressSession,3.2.3,59.838889828028364,
31,green,440,1.0,,,,,,0,30,30,30,,,,,,,,,,,,,,,,,,,,,ka,002,2019_Oct_05_1028,StressSession,3.2.3,59.838889828028364,
32,green,440,1.0,,,,,,0,31,31,31,,,,,,,,,,,,,,,,,,,,,ka,002,2019_Oct_05_1028,StressSession,3.2.3,59.838889828028364,
33,green,440,1.0,,,,,,0,32,32,32,,,,,,,,,,,,,,,,,,,,,ka,002,2019_Oct_05_1028,StressSession,3.2.3,59.838889828028364,
34,green,440,1.0,,,,,,0,33,33,33,,,,,,,,,,,,,,,,,,,,,ka,002,2019_Oct_05_1028,StressSession,3.2.3,59.838889828028364,
35,green,440,1.0,,,,,,0,34,34,34,,,,,,,,,,,,,,,,,,,,,ka,002,2019_Oct_05_1028,StressSession,3.2.3,59.838889828028364,
36,green,440,1.0,,,,,,0,35,35,35,,,,,,,,,,,,,,,,,,,,,ka,002,2019_Oct_05_1028,StressSession,3.2.3,59.838889828028364,
37,green,440,1.0,,,,,,0,36,36,36,,,,,,,,,,,,,,,,,,,,,ka,002,2019_Oct_05_1028,StressSession,3.2.3,59.838889828028364,
38,green,440,1.0,,,,,,0,37,37,37,,,,,,,,,,,,,,,,,,,,,ka,002,2019_Oct_05_1028,StressSession,3.2.3,59.838889828028364,
39,green,440,1.0,,,,,,0,38,38,38,,,,,,,,,,,,,,,,,,,,,ka,002,2019_Oct_05_1028,StressSession,3.2.3,59.838889828028364,
40,green,440,1.0,,,,,,0,39,39,39,,,,,,,,,,,,,,,,,,,,,ka,002,2019_Oct_05_1028,StressSession,3.2.3,59.838889828028364,
41,green,440,1.0,,,,,,0,40,40,40,,,,,,,,,,,,,,,,,,,,,ka,002,2019_Oct_05_1028,StressSession,3.2.3,59.838889828028364,
42,green,440,1.0,,,,,,0,41,41,41,,,,,,,,,,,,,,,,,,,,,ka,002,2019_Oct_05_1028,StressSession,3.2.3,59.838889828028364,
43,green,440,1.0,,,,,,0,42,42,42,,,,,,,,,,,,,,,,,,,,,ka,002,2019_Oct_05_1028,StressSession,3.2.3,59.838889828028364,
44,green,440,1.0,,,,,,0,43,43,43,,,,,,,,,,,,,,,,,,,,,ka,002,2019_Oct_05_1028,StressSession,3.2.3,59.838889828028364,
45,green,440,1.0,,,,,,0,44,44,44,,,,,,,,,,,,,,,,,,,,,ka,002,2019_Oct_05_1028,StressSession,3.2.3,59.838889828028364,
46,green,440,1.0,,,,,,0,45,45,45,,,,,,,,,,,,,,,,,,,,,ka,002,2019_Oct_05_1028,StressSession,3.2.3,59.838889828028364,
47,green,440,1.0,,,,,,0,46,46,46,,,,,,,,,,,,,,,,,,,,,ka,002,2019_Oct_05_1028,StressSession,3.2.3,59.838889828028364,
48,green,440,1.0,,,,,,0,47,47,47,,,,,,,,,,,,,,,,,,,,,ka,002,2019_Oct_05_1028,StressSession,3.2.3,59.838889828028364,
49,green,440,1.0,,,,,,0,48,48,48,,,,,,,,,,,,,,,,,,,,,ka,002,2019_Oct_05_1028,StressSession,3.2.3,59.838889828028364,
50,green,440,1.0,,,,,,0,49,49,49,,,,,,,,,,,,,,,,,,,,,ka,002,2019_Oct_05_1028,StressSession,3.2.3,59.838889828028364,
51,green,440,1.0,,,,,,0,50,50,50,,,,,,,,,,,,,,,,,,,,,ka,002,2019_Oct_05_1028,StressSession,3.2.3,59.838889828028364,
52,green,440,1.0,,,,,,0,51,51,51,,,,,,,,,,,,,,,,,,,,,ka,002,2019_Oct_05_1028,StressSession,3.2.3,59.838889828028364,
53,green,440,1.0,,,,,,0,52,52,52,,,,,,,,,,,,,,,,,,,,,ka,002,2019_Oct_05_1028,StressSession,3.2.3,59.838889828028364,
54,green,440,1.0,,,,,,0,53,53,53,,,,,,,,,,,,,,,,,,,,,ka,002,2019_Oct_05_1028,StressSession,3.2.3,59.838889828028364,
55,green,440,1.0,,,,,,0,54,54,54,,,,,,,,,,,,,,,,,,,,,ka,002,2019_Oct_05_1028,StressSession,3.2.3,59.838889828028364,
56,green,440,1.0,,,,,,0,55,55,55,,,,,,,,,,,,,,,,,,,,,ka,002,2019_Oct_05_1028,StressSession,3.2.3,59.838889828028364,
57,green,440,1.0,,,,,,0,56,56,56,,,,,,,,,,,,,,,,,,,,,ka,002,2019_Oct_05_1028,StressSession,3.2.3,59.838889828028364,
58,green,440,1.0,,,,,,0,57,57,57,,,,,,,,,,,,,,,,,,,,,ka,002,2019_Oct_05_1028,StressSession,3.2.3,59.838889828028364,
59,green,440,1.0,,,,,,0,58,58,58,,,,,,,,,,,,,,,,,,,,,ka,002,2019_Oct_05_1028,StressSession,3.2.3,59.838889828028364,
60,green,440,1.0,,,,,,0,59,59,59,,,,,,,,,,,,,,,,,,,,,ka,002,2019_Oct_05_1028,StressSession,3.2.3,59.838889828028364,
61,green,440,1.0,,,,,,0,60,60,60,,,,,,,,,,,,,,,,,,,,,ka,002,2019_Oct_05_1028,StressSession,3.2.3,59.838889828028364,
62,green,440,1.0,,,,,,0,61,61,61,,,,,,,,,,,,,,,,,,,,,ka,002,2019_Oct_05_1028,StressSession,3.2.3,59.838889828028364,
63,green,440,1.0,,,,,,0,62,62,62,,,,,,,,,,,,,,,,,,,,,ka,002,2019_Oct_05_1028,StressSession,3.2.3,59.838889828028364,
64,green,440,1.0,,,,,,0,63,63,63,,,,,,,,,,,,,,,,,,,,,ka,002,2019_Oct_05_1028,StressSession,3.2.3,59.838889828028364,
65,green,440,1.0,,,,,,0,64,64,64,,,,,,,,,,,,,,,,,,,,,ka,002,2019_Oct_05_1028,StressSession,3.2.3,59.838889828028364,
66,green,440,1.0,,,,,,0,65,65,65,,,,,,,,,,,,,,,,,,,,,ka,002,2019_Oct_05_1028,StressSession,3.2.3,59.838889828028364,
67,green,440,1.0,,,,,,0,66,66,66,,,,,,,,,,,,,,,,,,,,,ka,002,2019_Oct_05_1028,StressSession,3.2.3,59.838889828028364,
68,green,440,1.0,,,,,,0,67,67,67,,,,,,,,,,,,,,,,,,,,,ka,002,2019_Oct_05_1028,StressSession,3.2.3,59.838889828028364,
69,green,440,1.0,,,,,,0,68,68,68,,,,,,,,,,,,,,,,,,,,,ka,002,2019_Oct_05_1028,StressSession,3.2.3,59.838889828028364,
70,green,440,1.0,,,,,,0,69,69,69,,,,,,,,,,,,,,,,,,,,,ka,002,2019_Oct_05_1028,StressSession,3.2.3,59.838889828028364,
71,green,440,1.0,,,,,,0,70,70,70,,,,,,,,,,,,,,,,,,,,,ka,002,2019_Oct_05_1028,StressSession,3.2.3,59.838889828028364,
72,green,440,1.0,,,,,,0,71,71,71,,,,,,,,,,,,,,,,,,,,,ka,002,2019_Oct_05_1028,StressSession,3.2.3,59.838889828028364,
73,green,440,1.0,,,,,,0,72,72,72,,,,,,,,,,,,,,,,,,,,,ka,002,2019_Oct_05_1028,StressSession,3.2.3,59.838889828028364,
74,green,440,1.0,,,,,,0,73,73,73,,,,,,,,,,,,,,,,,,,,,ka,002,2019_Oct_05_1028,StressSession,3.2.3,59.838889828028364,
75,green,440,1.0,,,,,,0,74,74,74,,,,,,,,,,,,,,,,,,,,,ka,002,2019_Oct_05_1028,StressSession,3.2.3,59.838889828028364,
76,green,440,1.0,,,,,,0,75,75,75,,,,,,,,,,,,,,,,,,,,,ka,002,2019_Oct_05_1028,StressSession,3.2.3,59.838889828028364,
77,green,440,1.0,,,,,,0,76,76,76,,,,,,,,,,,,,,,,,,,,,ka,002,2019_Oct_05_1028,StressSession,3.2.3,59.838889828028364,
78,green,440,1.0,,,,,,0,77,77,77,,,,,,,,,,,,,,,,,,,,,ka,002,2019_Oct_05_1028,StressSession,3.2.3,59.838889828028364,
79,green,440,1.0,,,,,,0,78,78,78,,,,,,,,,,,,,,,,,,,,,ka,002,2019_Oct_05_1028,StressSession,3.2.3,59.838889828028364,
80,green,440,1.0,,,,,,0,79,79,79,,,,,,,,,,,,,,,,,,,,,ka,002,2019_Oct_05_1028,StressSession,3.2.3,59.838889828028364,
81,green,440,1.0,,,,,,0,80,80,80,,,,,,,,,,,,,,,,,,,,,ka,002,2019_Oct_05_1028,StressSession,3.2.3,59.838889828028364,
82,green,440,1.0,,,,,,0,81,81,81,,,,,,,,,,,,,,,,,,,,,ka,002,2019_Oct_05_1028,StressSession,3.2.3,59.838889828028364,
83,green,440,1.0,,,,,,0,82,82,82,,,,,,,,,,,,,,,,,,,,,ka,002,2019_Oct_05_1028,StressSession,3.2.3,59.838889828028364,
84,green,440,1.0,,,,,,0,83,83,83,,,,,,,,,,,,,,,,,,,,,ka,002,2019_Oct_05_1028,StressSession,3.2.3,59.838889828028364,
85,green,440,1.0,,,,,,0,84,84,84,,,,,,,,,,,,,,,,,,,,,ka,002,2019_Oct_05_1028,StressSession,3.2.3,59.838889828028364,
86,green,440,1.0,,,,,,0,85,85,85,,,,,,,,,,,,,,,,,,,,,ka,002,2019_Oct_05_1028,StressSession,3.2.3,59.838889828028364,
87,green,440,1.0,,,,,,0,86,86,86,,,,,,,,,,,,,,,,,,,,,ka,002,2019_Oct_05_1028,StressSession,3.2.3,59.838889828028364,
88,green,440,1.0,,,,,,0,87,87,87,,,,,,,,,,,,,,,,,,,,,ka,002,2019_Oct_05_1028,StressSession,3.2.3,59.838889828028364,
89,green,440,1.0,,,,,,0,88,88,88,,,,,,,,,,,,,,,,,,,,,ka,002,2019_Oct_05_1028,StressSession,3.2.3,59.838889828028364,
90,green,440,1.0,,,,,,0,89,89,89,,,,,,,,,,,,,,,,,,,,,ka,002,2019_Oct_05_1028,StressSession,3.2.3,59.838889828028364,
91,green,440,1.0,,,,,,0,90,90,90,,,,,,,,,,,,,,,,,,,,,ka,002,2019_Oct_05_1028,StressSession,3.2.3,59.838889828028364,
92,green,440,1.0,,,,,,0,91,91,91,,,,,,,,,,,,,,,,,,,,,ka,002,2019_Oct_05_1028,StressSession,3.2.3,59.838889828028364,
93,green,440,1.0,,,,,,0,92,92,92,,,,,,,,,,,,,,,,,,,,,ka,002,2019_Oct_05_1028,StressSession,3.2.3,59.838889828028364,
94,green,440,1.0,,,,,,0,93,93,93,,,,,,,,,,,,,,,,,,,,,ka,002,2019_Oct_05_1028,StressSession,3.2.3,59.838889828028364,
95,green,440,1.0,,,,,,0,94,94,94,,,,,,,,,,,,,,,,,,,,,ka,002,2019_Oct_05_1028,StressSession,3.2.3,59.838889828028364,
96,green,440,1.0,,,,,,0,95,95,95,,,,,,,,,,,,,,,,,,,,,ka,002,2019_Oct_05_1028,StressSession,3.2.3,59.838889828028364,
97,green,440,1.0,,,,,,0,96,96,96,,,,,,,,,,,,,,,,,,,,,ka,002,2019_Oct_05_1028,StressSession,3.2.3,59.838889828028364,
98,green,440,1.0,,,,,,0,97,97,97,,,,,,,,,,,,,,,,,,,,,ka,002,2019_Oct_05_1028,StressSession,3.2.3,59.838889828028364,
99,green,440,1.0,,,,,,0,98,98,98,,,,,,,,,,,,,,,,,,,,,ka,002,2019_Oct_05_1028,StressSession,3.2.3,59.838889828028364,
100,green,440,1.0,,,,,,0,99,99,99,,,,,,,,,,,,,,,,,,,,,ka,002,2019_Oct_05_1028,StressSession,3.2.3,59.838889828028364,
101,green,440,1.0,,,,,,0,100,100,100,,,,,,,,,,,,,,,,,,,,,ka,002,2019_Oct_05_1028,StressSession,3.2.3,59.838889828028364,
102,green,440,1.0,,,,,,0,101,101,101,,,,,,,,,,,,,,,,,,,,,ka,002,2019_Oct_05_1028,StressSession,3.2.3,59.838889828028364,
103,green,440,1.0,,,,,,0,102,102,102,,,,,,,,,,,,,,,,,,,,,ka,002,2019_Oct_05_1028,StressSession,3.2.3,59.838889828028364,
104,green,440,1.0,,,,,,0,103,103,103,,,,,,,,,,,,,,,,,,,,,ka,002,2019_Oct_05_1028,StressSession,3.2.3,59.838889828028364,
105,green,440,1.0,,,,,,0,104,104,104,,,,,,,,,,,,,,,,,,,,,ka,002,2019_Oct_05_1028,StressSession,3.2.3,59.838889828028364,
106,green,440,1.0,,,,,,0,105,105,105,,,,,,,,,,,,,,,,,,,,,ka,002,2019_Oct_05_1028,StressSession,3.2.3,59.838889828028364,
107,green,440,1.0,,,,,,0,106,106,106,,,,,,,,,,,,,,,,,,,,,ka,002,2019_Oct_05_1028,StressSession,3.2.3,59.838889828028364,
108,green,440,1.0,,,,,,0,107,107,107,,,,,,,,,,,,,,,,,,,,,ka,002,2019_Oct_05_1028,StressSession,3.2.3,59.838889828028364,
109,green,440,1.0,,,,,,0,108,108,108,,,,,,,,,,,,,,,,,,,,,ka,002,2019_Oct_05_1028,StressSession,3.2.3,59.838889828028364,
110,green,440,1.0,,,,,,0,109,109,109,,,,,,,,,,,,,,,,,,,,,ka,002,2019_Oct_05_1028,StressSession,3.2.3,59.838889828028364,
111,green,440,1.0,,,,,,0,110,110,110,,,,,,,,,,,,,,,,,,,,,ka,002,2019_Oct_05_1028,StressSession,3.2.3,59.838889828028364,
112,green,440,1.0,,,,,,0,111,111,111,,,,,,,,,,,,,,,,,,,,,ka,002,2019_Oct_05_1028,StressSession,3.2.3,59.838889828028364,
113,green,440,1.0,,,,,,0,112,112,112,,,,,,,,,,,,,,,,,,,,,ka,002,2019_Oct_05_1028,StressSession,3.2.3,59.838889828028364,
114,green,440,1.0,,,,,,0,113,113,113,,,,,,,,,,,,,,,,,,,,,ka,002,2019_Oct_05_1028,StressSession,3.2.3,59.838889828028364,
115,green,440,1.0,,,,,,0,114,114,114,,,,,,,,,,,,,,,,,,,,,ka,002,2019_Oct_05_1028,StressSession,3.2.3,59.838889828028364,
116,green,440,1.0,,,,,,0,115,115,115,,,,,,,,,,,,,,,,,,,,,ka,002,2019_Oct_05_1028,StressSession,3.2.3,59.838889828028364,
117,green,440,1.0,,,,,,0,116,116,116,,,,,,,,,,,,,,,,,,,,,ka,002,2019_Oct_05_1028,StressSession,3.2.3,59.838889828028364,
118,green,440,1.0,,,,,,0,117,117,117,,,,,,,,,,,,,,,,,,,,,ka,002,2019_Oct_05_1028,StressSession,3.2.3,59.838889828028364,
119,green,440,1.0,,,,,,0,118,118,118,,,,,,,,,,,,,,,,,,,,,ka,002,2019_Oct_05_1028,StressSession,3.2.3,59.838889828028364,
120,green,440,1.0,,,,,,0,119,119,119,,,,,,,,,,,,,,,,,,,,,ka,002,2019_Oct_05_1028,StressSession,3.2.3,59.838889828028364,
121,green,440,1.0,,,,,,0,120,120,120,,,,,,,,,,,,,,,,,,,,,ka,002,2019_Oct_05_1028,StressSession,3.2.3,59.838889828028364,
122,green,440,1.0,,,,,,0,121,121,121,,,,,,,,,,,,,,,,,,,,,ka,002,2019_Oct_05_1028,StressSession,3.2.3,59.838889828028364,
123,green,440,1.0,,,,,,0,122,122,122,,,,,,,,,,,,,,,,,,,,,ka,002,2019_Oct_05_1028,StressSession,3.2.3,59.838889828028364,
124,green,440,1.0,,,,,,0,123,123,123,,,,,,,,,,,,,,,,,,,,,ka,002,2019_Oct_05_1028,StressSession,3.2.3,59.838889828028364,
125,green,440,1.0,,,,,,0,124,124,124,,,,,,,,,,,,,,,,,,,,,ka,002,2019_Oct_05_1028,StressSession,3.2.3,59.838889828028364,
126,green,440,1.0,,,,,,0,125,125,125,,,,,,,,,,,,,,,,,,,,,ka,002,2019_Oct_05_1028,StressSession,3.2.3,59.838889828028364,
127,green,440,1.0,,,,,,0,126,126,126,,,,,,,,,,,,,,,,,,,,,ka,002,2019_Oct_05_1028,StressSession,3.2.3,59.838889828028364,
128,green,440,1.0,,,,,,0,127,127,127,,,,,,,,,,,,,,,,,,,,,ka,002,2019_Oct_05_1028,StressSession,3.2.3,59.838889828028364,
129,green,440,1.0,,,,,,0,128,128,128,,,,,,,,,,,,,,,,,,,,,ka,002,2019_Oct_05_1028,StressSession,3.2.3,59.838889828028364,
130,green,440,1.0,,,,,,0,129,129,129,,,,,,,,,,,,,,,,,,,,,ka,002,2019_Oct_05_1028,StressSession,3.2.3,59.838889828028364,
131,green,440,1.0,,,,,,0,130,130,130,,,,,,,,,,,,,,,,,,,,,ka,002,2019_Oct_05_1028,StressSession,3.2.3,59.838889828028364,
132,green,440,1.0,,,,,,0,131,131,131,,,,,,,,,,,,,,,,,,,,,ka,002,2019_Oct_05_1028,StressSession,3.2.3,59.838889828028364,
133,green,440,1.0,,,,,,0,132,132,132,,,,,,,,,,,,,,,,,,,,,ka,002,2019_Oct_05_1028,StressSession,3.2.3,59.838889828028364,
134,green,440,1.0,,,,,,0,133,133,133,,,,,,,,,,,,,,,,,,,,,ka,002,2019_Oct_05_1028,StressSession,3.2.3,59.838889828028364,
135,green,440,1.0,,,,,,0,134,134,134,,,,,,,,,,,,,,,,,,,,,ka,002,2019_Oct_05_1028,StressSession,3.2.3,59.838889828028364,
136,green,440,1.0,,,,,,0,135,135,135,,,,,,,,,,,,,,,,,,,,,ka,002,2019_Oct_05_1028,StressSession,3.2.3,59.838889828028364,
137,green,440,1.0,,,,,,0,136,136,136,,,,,,,,,,,,,,,,,,,,,ka,002,2019_Oct_05_1028,StressSession,3.2.3,59.838889828028364,
138,green,440,1.0,,,,,,0,137,137,137,,,,,,,,,,,,,,,,,,,,,ka,002,2019_Oct_05_1028,StressSession,3.2.3,59.838889828028364,
139,green,440,1.0,,,,,,0,138,138,138,,,,,,,,,,,,,,,,,,,,,ka,002,2019_Oct_05_1028,StressSession,3.2.3,59.838889828028364,
140,green,440,1.0,,,,,,0,139,139,139,,,,,,,,,,,,,,,,,,,,,ka,002,2019_Oct_05_1028,StressSession,3.2.3,59.838889828028364,
141,green,440,1.0,,,,,,0,140,140,140,,,,,,,,,,,,,,,,,,,,,ka,002,2019_Oct_05_1028,StressSession,3.2.3,59.838889828028364,
142,green,440,1.0,,,,,,0,141,141,141,,,,,,,,,,,,,,,,,,,,,ka,002,2019_Oct_05_1028,StressSession,3.2.3,59.838889828028364,
143,green,440,1.0,,,,,,0,142,142,142,,,,,,,,,,,,,,,,,,,,,ka,002,2019_Oct_05_1028,StressSession,3.2.3,59.838889828028364,
144,green,440,1.0,,,,,,0,143,143,143,,,,,,,,,,,,,,,,,,,,,ka,002,2019_Oct_05_1028,StressSession,3.2.3,59.838889828028364,
145,green,440,1.0,,,,,,0,144,144,144,,,,,,,,,,,,,,,,,,,,,ka,002,2019_Oct_05_1028,StressSession,3.2.3,59.838889828028364,
146,green,440,1.0,,,,,,0,145,145,145,,,,,,,,,,,,,,,,,,,,,ka,002,2019_Oct_05_1028,StressSession,3.2.3,59.838889828028364,
147,green,440,1.0,,,,,,0,146,146,146,,,,,,,,,,,,,,,,,,,,,ka,002,2019_Oct_05_1028,StressSession,3.2.3,59.838889828028364,
148,green,440,1.0,,,,,,0,147,147,147,,,,,,,,,,,,,,,,,,,,,ka,002,2019_Oct_05_1028,StressSession,3.2.3,59.838889828028364,
149,green,440,1.0,,,,,,0,148,148,148,,,,,,,,,,,,,,,,,,,,,ka,002,2019_Oct_05_1028,StressSession,3.2.3,59.838889828028364,
150,green,440,1.0,,,,,,0,149,149,149,,,,,,,,,,,,,,,,,,,,,ka,002,2019_Oct_05_1028,StressSession,3.2.3,59.838889828028364,
151,green,440,1.0,,,,,,0,150,150,150,,,,,,,,,,,,,,,,,,,,,ka,002,2019_Oct_05_1028,StressSession,3.2.3,59.838889828028364,
152,green,440,1.0,,,,,,0,151,151,151,,,,,,,,,,,,,,,,,,,,,ka,002,2019_Oct_05_1028,StressSession,3.2.3,59.838889828028364,
153,green,440,1.0,,,,,,0,152,152,152,,,,,,,,,,,,,,,,,,,,,ka,002,2019_Oct_05_1028,StressSession,3.2.3,59.838889828028364,
154,green,440,1.0,,,,,,0,153,153,153,,,,,,,,,,,,,,,,,,,,,ka,002,2019_Oct_05_1028,StressSession,3.2.3,59.838889828028364,
155,green,440,1.0,,,,,,0,154,154,154,,,,,,,,,,,,,,,,,,,,,ka,002,2019_Oct_05_1028,StressSession,3.2.3,59.838889828028364,
156,green,440,1.0,,,,,,0,155,155,155,,,,,,,,,,,,,,,,,,,,,ka,002,2019_Oct_05_1028,StressSession,3.2.3,59.838889828028364,
157,green,440,1.0,,,,,,0,156,156,156,,,,,,,,,,,,,,,,,,,,,ka,002,2019_Oct_05_1028,StressSession,3.2.3,59.838889828028364,
158,green,440,1.0,,,,,,0,157,157,157,,,,,,,,,,,,,,,,,,,,,ka,002,2019_Oct_05_1028,StressSession,3.2.3,59.838889828028364,
159,green,440,1.0,,,,,,0,158,158,158,,,,,,,,,,,,,,,,,,,,,ka,002,2019_Oct_05_1028,StressSession,3.2.3,59.838889828028364,
160,green,440,1.0,,,,,,0,159,159,159,,,,,,,,,,,,,,,,,,,,,ka,002,2019_Oct_05_1028,StressSession,3.2.3,59.838889828028364,
161,green,440,1.0,,,,,,0,160,160,160,,,,,,,,,,,,,,,,,,,,,ka,002,2019_Oct_05_1028,StressSession,3.2.3,59.838889828028364,
162,green,440,1.0,,,,,,0,161,161,161,,,,,,,,,,,,,,,,,,,,,ka,002,2019_Oct_05_1028,StressSession,3.2.3,59.838889828028364,
163,green,440,1.0,,,,,,0,162,162,162,,,,,,,,,,,,,,,,,,,,,ka,002,2019_Oct_05_1028,StressSession,3.2.3,59.838889828028364,
164,green,440,1.0,,,,,,0,163,163,163,,,,,,,,,,,,,,,,,,,,,ka,002,2019_Oct_05_1028,StressSession,3.2.3,59.838889828028364,
165,green,440,1.0,,,,,,0,164,164,164,,,,,,,,,,,,,,,,,,,,,ka,002,2019_Oct_05_1028,StressSession,3.2.3,59.838889828028364,
166,green,440,1.0,,,,,,0,165,165,165,,,,,,,,,,,,,,,,,,,,,ka,002,2019_Oct_05_1028,StressSession,3.2.3,59.838889828028364,
167,green,440,1.0,,,,,,0,166,166,166,,,,,,,,,,,,,,,,,,,,,ka,002,2019_Oct_05_1028,StressSession,3.2.3,59.838889828028364,
168,green,440,1.0,,,,,,0,167,167,167,,,,,,,,,,,,,,,,,,,,,ka,002,2019_Oct_05_1028,StressSession,3.2.3,59.838889828028364,
169,green,440,1.0,,,,,,0,168,168,168,,,,,,,,,,,,,,,,,,,,,ka,002,2019_Oct_05_1028,StressSession,3.2.3,59.838889828028364,
170,green,440,1.0,,,,,,0,169,169,169,,,,,,,,,,,,,,,,,,,,,ka,002,2019_Oct_05_1028,StressSession,3.2.3,59.838889828028364,
171,green,440,1.0,,,,,,0,170,170,170,,,,,,,,,,,,,,,,,,,,,ka,002,2019_Oct_05_1028,StressSession,3.2.3,59.838889828028364,
172,green,440,1.0,,,,,,0,171,171,171,,,,,,,,,,,,,,,,,,,,,ka,002,2019_Oct_05_1028,StressSession,3.2.3,59.838889828028364,
173,green,440,1.0,,,,,,0,172,172,172,,,,,,,,,,,,,,,,,,,,,ka,002,2019_Oct_05_1028,StressSession,3.2.3,59.838889828028364,
174,green,440,1.0,,,,,,0,173,173,173,,,,,,,,,,,,,,,,,,,,,ka,002,2019_Oct_05_1028,StressSession,3.2.3,59.838889828028364,
175,green,440,1.0,,,,,,0,174,174,174,,,,,,,,,,,,,,,,,,,,,ka,002,2019_Oct_05_1028,StressSession,3.2.3,59.838889828028364,
176,green,440,1.0,,,,,,0,175,175,175,,,,,,,,,,,,,,,,,,,,,ka,002,2019_Oct_05_1028,StressSession,3.2.3,59.838889828028364,
177,green,440,1.0,,,,,,0,176,176,176,,,,,,,,,,,,,,,,,,,,,ka,002,2019_Oct_05_1028,StressSession,3.2.3,59.838889828028364,
178,green,440,1.0,,,,,,0,177,177,177,,,,,,,,,,,,,,,,,,,,,ka,002,2019_Oct_05_1028,StressSession,3.2.3,59.838889828028364,
179,green,440,1.0,,,,,,0,178,178,178,,,,,,,,,,,,,,,,,,,,,ka,002,2019_Oct_05_1028,StressSession,3.2.3,59.838889828028364,
180,yellow,880,0.5,,,,,,0,179,179,179,,,,,,,,,,,,,,,,,,,,,ka,002,2019_Oct_05_1028,StressSession,3.2.3,59.838889828028364,
181,yellow,880,0.5,,,,,,0,180,180,180,,,,,,,,,,,,,,,,,,,,,ka,002,2019_Oct_05_1028,StressSession,3.2.3,59.838889828028364,
182,yellow,880,0.5,,,,,,0,181,181,181,,,,,,,,,,,,,,,,,,,,,ka,002,2019_Oct_05_1028,StressSession,3.2.3,59.838889828028364,
183,yellow,880,0.5,,,,,,0,182,182,182,,,,,,,,,,,,,,,,,,,,,ka,002,2019_Oct_05_1028,StressSession,3.2.3,59.838889828028364,
184,yellow,880,0.5,,,,,,0,183,183,183,,,,,,,,,,,,,,,,,,,,,ka,002,2019_Oct_05_1028,StressSession,3.2.3,59.838889828028364,
185,yellow,880,0.5,,,,,,0,184,184,184,,,,,,,,,,,,,,,,,,,,,ka,002,2019_Oct_05_1028,StressSession,3.2.3,59.838889828028364,
186,yellow,880,0.5,,,,,,0,185,185,185,,,,,,,,,,,,,,,,,,,,,ka,002,2019_Oct_05_1028,StressSession,3.2.3,59.838889828028364,
187,yellow,880,0.5,,,,,,0,186,186,186,,,,,,,,,,,,,,,,,,,,,ka,002,2019_Oct_05_1028,StressSession,3.2.3,59.838889828028364,
188,yellow,880,0.5,,,,,,0,187,187,187,,,,,,,,,,,,,,,,,,,,,ka,002,2019_Oct_05_1028,StressSession,3.2.3,59.838889828028364,
189,yellow,880,0.5,,,,,,0,188,188,188,,,,,,,,,,,,,,,,,,,,,ka,002,2019_Oct_05_1028,StressSession,3.2.3,59.838889828028364,
190,yellow,880,0.5,,,,,,0,189,189,189,,,,,,,,,,,,,,,,,,,,,ka,002,2019_Oct_05_1028,StressSession,3.2.3,59.838889828028364,
191,yellow,880,0.5,,,,,,0,190,190,190,,,,,,,,,,,,,,,,,,,,,ka,002,2019_Oct_05_1028,StressSession,3.2.3,59.838889828028364,
192,yellow,880,0.5,,,,,,0,191,191,191,,,,,,,,,,,,,,,,,,,,,ka,002,2019_Oct_05_1028,StressSession,3.2.3,59.838889828028364,
193,yellow,880,0.5,,,,,,0,192,192,192,,,,,,,,,,,,,,,,,,,,,ka,002,2019_Oct_05_1028,StressSession,3.2.3,59.838889828028364,
194,yellow,880,0.5,,,,,,0,193,193,193,,,,,,,,,,,,,,,,,,,,,ka,002,2019_Oct_05_1028,StressSession,3.2.3,59.838889828028364,
195,yellow,880,0.5,,,,,,0,194,194,194,,,,,,,,,,,,,,,,,,,,,ka,002,2019_Oct_05_1028,StressSession,3.2.3,59.838889828028364,
196,yellow,880,0.5,,,,,,0,195,195,195,,,,,,,,,,,,,,,,,,,,,ka,002,2019_Oct_05_1028,StressSession,3.2.3,59.838889828028364,
197,yellow,880,0.5,,,,,,0,196,196,196,,,,,,,,,,,,,,,,,,,,,ka,002,2019_Oct_05_1028,StressSession,3.2.3,59.838889828028364,
198,yellow,880,0.5,,,,,,0,197,197,197,,,,,,,,,,,,,,,,,,,,,ka,002,2019_Oct_05_1028,StressSession,3.2.3,59.838889828028364,
199,yellow,880,0.5,,,,,,0,198,198,198,,,,,,,,,,,,,,,,,,,,,ka,002,2019_Oct_05_1028,StressSession,3.2.3,59.838889828028364,
200,yellow,880,0.5,,,,,,0,199,199,199,,,,,,,,,,,,,,,,,,,,,ka,002,2019_Oct_05_1028,StressSession,3.2.3,59.838889828028364,
201,yellow,880,0.5,,,,,,0,200,200,200,,,,,,,,,,,,,,,,,,,,,ka,002,2019_Oct_05_1028,StressSession,3.2.3,59.838889828028364,
202,yellow,880,0.5,,,,,,0,201,201,201,,,,,,,,,,,,,,,,,,,,,ka,002,2019_Oct_05_1028,StressSession,3.2.3,59.838889828028364,
203,yellow,880,0.5,,,,,,0,202,202,202,,,,,,,,,,,,,,,,,,,,,ka,002,2019_Oct_05_1028,StressSession,3.2.3,59.838889828028364,
204,yellow,880,0.5,,,,,,0,203,203,203,,,,,,,,,,,,,,,,,,,,,ka,002,2019_Oct_05_1028,StressSession,3.2.3,59.838889828028364,
205,yellow,880,0.5,,,,,,0,204,204,204,,,,,,,,,,,,,,,,,,,,,ka,002,2019_Oct_05_1028,StressSession,3.2.3,59.838889828028364,
206,yellow,880,0.5,,,,,,0,205,205,205,,,,,,,,,,,,,,,,,,,,,ka,002,2019_Oct_05_1028,StressSession,3.2.3,59.838889828028364,
207,yellow,880,0.5,,,,,,0,206,206,206,,,,,,,,,,,,,,,,,,,,,ka,002,2019_Oct_05_1028,StressSession,3.2.3,59.838889828028364,
208,yellow,880,0.5,,,,,,0,207,207,207,,,,,,,,,,,,,,,,,,,,,ka,002,2019_Oct_05_1028,StressSession,3.2.3,59.838889828028364,
209,yellow,880,0.5,,,,,,0,208,208,208,,,,,,,,,,,,,,,,,,,,,ka,002,2019_Oct_05_1028,StressSession,3.2.3,59.838889828028364,
210,yellow,880,0.5,,,,,,0,209,209,209,,,,,,,,,,,,,,,,,,,,,ka,002,2019_Oct_05_1028,StressSession,3.2.3,59.838889828028364,
211,yellow,880,0.5,,,,,,0,210,210,210,,,,,,,,,,,,,,,,,,,,,ka,002,2019_Oct_05_1028,StressSession,3.2.3,59.838889828028364,
212,yellow,880,0.5,,,,,,0,211,211,211,,,,,,,,,,,,,,,,,,,,,ka,002,2019_Oct_05_1028,StressSession,3.2.3,59.838889828028364,
213,yellow,880,0.5,,,,,,0,212,212,212,,,,,,,,,,,,,,,,,,,,,ka,002,2019_Oct_05_1028,StressSession,3.2.3,59.838889828028364,
214,yellow,880,0.5,,,,,,0,213,213,213,,,,,,,,,,,,,,,,,,,,,ka,002,2019_Oct_05_1028,StressSession,3.2.3,59.838889828028364,
215,yellow,880,0.5,,,,,,0,214,214,214,,,,,,,,,,,,,,,,,,,,,ka,002,2019_Oct_05_1028,StressSession,3.2.3,59.838889828028364,
216,yellow,880,0.5,,,,,,0,215,215,215,,,,,,,,,,,,,,,,,,,,,ka,002,2019_Oct_05_1028,StressSession,3.2.3,59.838889828028364,
217,yellow,880,0.5,,,,,,0,216,216,216,,,,,,,,,,,,,,,,,,,,,ka,002,2019_Oct_05_1028,StressSession,3.2.3,59.838889828028364,
218,yellow,880,0.5,,,,,,0,217,217,217,,,,,,,,,,,,,,,,,,,,,ka,002,2019_Oct_05_1028,StressSession,3.2.3,59.838889828028364,
219,yellow,880,0.5,,,,,,0,218,218,218,,,,,,,,,,,,,,,,,,,,,ka,002,2019_Oct_05_1028,StressSession,3.2.3,59.838889828028364,
220,yellow,880,0.5,,,,,,0,219,219,219,,,,,,,,,,,,,,,,,,,,,ka,002,2019_Oct_05_1028,StressSession,3.2.3,59.838889828028364,
221,yellow,880,0.5,,,,,,0,220,220,220,,,,,,,,,,,,,,,,,,,,,ka,002,2019_Oct_05_1028,StressSession,3.2.3,59.838889828028364,
222,yellow,880,0.5,,,,,,0,221,221,221,,,,,,,,,,,,,,,,,,,,,ka,002,2019_Oct_05_1028,StressSession,3.2.3,59.838889828028364,
223,yellow,880,0.5,,,,,,0,222,222,222,,,,,,,,,,,,,,,,,,,,,ka,002,2019_Oct_05_1028,StressSession,3.2.3,59.838889828028364,
224,yellow,880,0.5,,,,,,0,223,223,223,,,,,,,,,,,,,,,,,,,,,ka,002,2019_Oct_05_1028,StressSession,3.2.3,59.838889828028364,
225,yellow,880,0.5,,,,,,0,224,224,224,,,,,,,,,,,,,,,,,,,,,ka,002,2019_Oct_05_1028,StressSession,3.2.3,59.838889828028364,
226,yellow,880,0.5,,,,,,0,225,225,225,,,,,,,,,,,,,,,,,,,,,ka,002,2019_Oct_05_1028,StressSession,3.2.3,59.838889828028364,
227,yellow,880,0.5,,,,,,0,226,226,226,,,,,,,,,,,,,,,,,,,,,ka,002,2019_Oct_05_1028,StressSession,3.2.3,59.838889828028364,
228,yellow,880,0.5,,,,,,0,227,227,227,,,,,,,,,,,,,,,,,,,,,ka,002,2019_Oct_05_1028,StressSession,3.2.3,59.838889828028364,
229,yellow,880,0.5,,,,,,0,228,228,228,,,,,,,,,,,,,,,,,,,,,ka,002,2019_Oct_05_1028,StressSession,3.2.3,59.838889828028364,
230,yellow,880,0.5,,,,,,0,229,229,229,,,,,,,,,,,,,,,,,,,,,ka,002,2019_Oct_05_1028,StressSession,3.2.3,59.838889828028364,
231,yellow,880,0.5,,,,,,0,230,230,230,,,,,,,,,,,,,,,,,,,,,ka,002,2019_Oct_05_1028,StressSession,3.2.3,59.838889828028364,
232,yellow,880,0.5,,,,,,0,231,231,231,,,,,,,,,,,,,,,,,,,,,ka,002,2019_Oct_05_1028,StressSession,3.2.3,59.838889828028364,
233,yellow,880,0.5,,,,,,0,232,232,232,,,,,,,,,,,,,,,,,,,,,ka,002,2019_Oct_05_1028,StressSession,3.2.3,59.838889828028364,
234,yellow,880,0.5,,,,,,0,233,233,233,,,,,,,,,,,,,,,,,,,,,ka,002,2019_Oct_05_1028,StressSession,3.2.3,59.838889828028364,
235,yellow,880,0.5,,,,,,0,234,234,234,,,,,,,,,,,,,,,,,,,,,ka,002,2019_Oct_05_1028,StressSession,3.2.3,59.838889828028364,
236,yellow,880,0.5,,,,,,0,235,235,235,,,,,,,,,,,,,,,,,,,,,ka,002,2019_Oct_05_1028,StressSession,3.2.3,59.838889828028364,
237,yellow,880,0.5,,,,,,0,236,236,236,,,,,,,,,,,,,,,,,,,,,ka,002,2019_Oct_05_1028,StressSession,3.2.3,59.838889828028364,
238,yellow,880,0.5,,,,,,0,237,237,237,,,,,,,,,,,,,,,,,,,,,ka,002,2019_Oct_05_1028,StressSession,3.2.3,59.838889828028364,
239,yellow,880,0.5,,,,,,0,238,238,238,,,,,,,,,,,,,,,,,,,,,ka,002,2019_Oct_05_1028,StressSession,3.2.3,59.838889828028364,
240,red,1760,0.5,,,,,,0,239,239,239,,,,,,,,,,,,,,,,,,,,,ka,002,2019_Oct_05_1028,StressSession,3.2.3,59.838889828028364,
241,red,1760,0.5,,,,,,0,240,240,240,,,,,,,,,,,,,,,,,,,,,ka,002,2019_Oct_05_1028,StressSession,3.2.3,59.838889828028364,
242,red,1760,0.5,,,,,,0,241,241,241,,,,,,,,,,,,,,,,,,,,,ka,002,2019_Oct_05_1028,StressSession,3.2.3,59.838889828028364,
243,red,1760,0.5,,,,,,0,242,242,242,,,,,,,,,,,,,,,,,,,,,ka,002,2019_Oct_05_1028,StressSession,3.2.3,59.838889828028364,
244,red,1760,0.5,,,,,,0,243,243,243,,,,,,,,,,,,,,,,,,,,,ka,002,2019_Oct_05_1028,StressSession,3.2.3,59.838889828028364,
245,red,1760,0.5,,,,,,0,244,244,244,,,,,,,,,,,,,,,,,,,,,ka,002,2019_Oct_05_1028,StressSession,3.2.3,59.838889828028364,
246,red,1760,0.5,,,,,,0,245,245,245,,,,,,,,,,,,,,,,,,,,,ka,002,2019_Oct_05_1028,StressSession,3.2.3,59.838889828028364,
247,red,1760,0.5,,,,,,0,246,246,246,,,,,,,,,,,,,,,,,,,,,ka,002,2019_Oct_05_1028,StressSession,3.2.3,59.838889828028364,
248,red,1760,0.5,,,,,,0,247,247,247,,,,,,,,,,,,,,,,,,,,,ka,002,2019_Oct_05_1028,StressSession,3.2.3,59.838889828028364,
249,red,1760,0.5,,,,,,0,248,248,248,,,,,,,,,,,,,,,,,,,,,ka,002,2019_Oct_05_1028,StressSession,3.2.3,59.838889828028364,
250,red,1760,0.5,,,,,,0,249,249,249,,,,,,,,,,,,,,,,,,,,,ka,002,2019_Oct_05_1028,StressSession,3.2.3,59.838889828028364,
251,red,1760,0.5,,,,,,0,250,250,250,,,,,,,,,,,,,,,,,,,,,ka,002,2019_Oct_05_1028,StressSession,3.2.3,59.838889828028364,
252,red,1760,0.5,,,,,,0,251,251,251,,,,,,,,,,,,,,,,,,,,,ka,002,2019_Oct_05_1028,StressSession,3.2.3,59.838889828028364,
253,red,1760,0.5,,,,,,0,252,252,252,,,,,,,,,,,,,,,,,,,,,ka,002,2019_Oct_05_1028,StressSession,3.2.3,59.838889828028364,
254,red,1760,0.5,,,,,,0,253,253,253,,,,,,,,,,,,,,,,,,,,,ka,002,2019_Oct_05_1028,StressSession,3.2.3,59.838889828028364,
255,red,1760,0.5,,,,,,0,254,254,254,,,,,,,,,,,,,,,,,,,,,ka,002,2019_Oct_05_1028,StressSession,3.2.3,59.838889828028364,
256,red,1760,0.5,,,,,,0,255,255,255,,,,,,,,,,,,,,,,,,,,,ka,002,2019_Oct_05_1028,StressSession,3.2.3,59.838889828028364,
257,red,1760,0.5,,,,,,0,256,256,256,,,,,,,,,,,,,,,,,,,,,ka,002,2019_Oct_05_1028,StressSession,3.2.3,59.838889828028364,
258,red,1760,0.5,,,,,,0,257,257,257,,,,,,,,,,,,,,,,,,,,,ka,002,2019_Oct_05_1028,StressSession,3.2.3,59.838889828028364,
259,red,1760,0.5,,,,,,0,258,258,258,,,,,,,,,,,,,,,,,,,,,ka,002,2019_Oct_05_1028,StressSession,3.2.3,59.838889828028364,
260,red,1760,0.5,,,,,,0,259,259,259,,,,,,,,,,,,,,,,,,,,,ka,002,2019_Oct_05_1028,StressSession,3.2.3,59.838889828028364,
261,red,1760,0.5,,,,,,0,260,260,260,,,,,,,,,,,,,,,,,,,,,ka,002,2019_Oct_05_1028,StressSession,3.2.3,59.838889828028364,
262,red,1760,0.5,,,,,,0,261,261,261,,,,,,,,,,,,,,,,,,,,,ka,002,2019_Oct_05_1028,StressSession,3.2.3,59.838889828028364,
263,red,1760,0.5,,,,,,0,262,262,262,,,,,,,,,,,,,,,,,,,,,ka,002,2019_Oct_05_1028,StressSession,3.2.3,59.838889828028364,
264,red,1760,0.5,,,,,,0,263,263,263,,,,,,,,,,,,,,,,,,,,,ka,002,2019_Oct_05_1028,StressSession,3.2.3,59.838889828028364,
265,red,1760,0.5,,,,,,0,264,264,264,,,,,,,,,,,,,,,,,,,,,ka,002,2019_Oct_05_1028,StressSession,3.2.3,59.838889828028364,
266,red,1760,0.5,,,,,,0,265,265,265,,,,,,,,,,,,,,,,,,,,,ka,002,2019_Oct_05_1028,StressSession,3.2.3,59.838889828028364,
267,red,1760,0.5,,,,,,0,266,266,266,,,,,,,,,,,,,,,,,,,,,ka,002,2019_Oct_05_1028,StressSession,3.2.3,59.838889828028364,
268,red,1760,0.5,,,,,,0,267,267,267,,,,,,,,,,,,,,,,,,,,,ka,002,2019_Oct_05_1028,StressSession,3.2.3,59.838889828028364,
269,red,1760,0.5,,,,,,0,268,268,268,,,,,,,,,,,,,,,,,,,,,ka,002,2019_Oct_05_1028,StressSession,3.2.3,59.838889828028364,
270,red,1760,0.5,,,,,,0,269,269,269,,,,,,,,,,,,,,,,,,,,,ka,002,2019_Oct_05_1028,StressSession,3.2.3,59.838889828028364,
271,red,1760,0.5,,,,,,0,270,270,270,,,,,,,,,,,,,,,,,,,,,ka,002,2019_Oct_05_1028,StressSession,3.2.3,59.838889828028364,
272,red,1760,0.5,,,,,,0,271,271,271,,,,,,,,,,,,,,,,,,,,,ka,002,2019_Oct_05_1028,StressSession,3.2.3,59.838889828028364,
273,red,1760,0.5,,,,,,0,272,272,272,,,,,,,,,,,,,,,,,,,,,ka,002,2019_Oct_05_1028,StressSession,3.2.3,59.838889828028364,
274,red,1760,0.5,,,,,,0,273,273,273,,,,,,,,,,,,,,,,,,,,,ka,002,2019_Oct_05_1028,StressSession,3.2.3,59.838889828028364,
275,red,1760,0.5,,,,,,0,274,274,274,,,,,,,,,,,,,,,,,,,,,ka,002,2019_Oct_05_1028,StressSession,3.2.3,59.838889828028364,
276,red,1760,0.5,,,,,,0,275,275,275,,,,,,,,,,,,,,,,,,,,,ka,002,2019_Oct_05_1028,StressSession,3.2.3,59.838889828028364,
277,red,1760,0.5,,,,,,0,276,276,276,,,,,,,,,,,,,,,,,,,,,ka,002,2019_Oct_05_1028,StressSession,3.2.3,59.838889828028364,
278,red,1760,0.5,,,,,,0,277,277,277,,,,,,,,,,,,,,,,,,,,,ka,002,2019_Oct_05_1028,StressSession,3.2.3,59.838889828028364,
279,red,1760,0.5,,,,,,0,278,278,278,,,,,,,,,,,,,,,,,,,,,ka,002,2019_Oct_05_1028,StressSession,3.2.3,59.838889828028364,
280,red,1760,0.5,,,,,,0,279,279,279,,,,,,,,,,,,,,,,,,,,,ka,002,2019_Oct_05_1028,StressSession,3.2.3,59.838889828028364,
281,red,1760,0.5,,,,,,0,280,280,280,,,,,,,,,,,,,,,,,,,,,ka,002,2019_Oct_05_1028,StressSession,3.2.3,59.838889828028364,
282,red,1760,0.5,,,,,,0,281,281,281,,,,,,,,,,,,,,,,,,,,,ka,002,2019_Oct_05_1028,StressSession,3.2.3,59.838889828028364,
283,red,1760,0.5,,,,,,0,282,282,282,,,,,,,,,,,,,,,,,,,,,ka,002,2019_Oct_05_1028,StressSession,3.2.3,59.838889828028364,
284,red,1760,0.5,,,,,,0,283,283,283,,,,,,,,,,,,,,,,,,,,,ka,002,2019_Oct_05_1028,StressSession,3.2.3,59.838889828028364,
285,red,1760,0.5,,,,,,0,284,284,284,,,,,,,,,,,,,,,,,,,,,ka,002,2019_Oct_05_1028,StressSession,3.2.3,59.838889828028364,
286,red,1760,0.5,,,,,,0,285,285,285,,,,,,,,,,,,,,,,,,,,,ka,002,2019_Oct_05_1028,StressSession,3.2.3,59.838889828028364,
287,red,1760,0.5,,,,,,0,286,286,286,,,,,,,,,,,,,,,,,,,,,ka,002,2019_Oct_05_1028,StressSession,3.2.3,59.838889828028364,
288,red,1760,0.5,,,,,,0,287,287,287,,,,,,,,,,,,,,,,,,,,,ka,002,2019_Oct_05_1028,StressSession,3.2.3,59.838889828028364,
289,red,1760,0.5,,,,,,0,288,288,288,,,,,,,,,,,,,,,,,,,,,ka,002,2019_Oct_05_1028,StressSession,3.2.3,59.838889828028364,
290,red,1760,0.5,,,,,,0,289,289,289,,,,,,,,,,,,,,,,,,,,,ka,002,2019_Oct_05_1028,StressSession,3.2.3,59.838889828028364,
291,red,1760,0.5,,,,,,0,290,290,290,,,,,,,,,,,,,,,,,,,,,ka,002,2019_Oct_05_1028,StressSession,3.2.3,59.838889828028364,
292,red,1760,0.5,,,,,,0,291,291,291,,,,,,,,,,,,,,,,,,,,,ka,002,2019_Oct_05_1028,StressSession,3.2.3,59.838889828028364,
293,red,1760,0.5,,,,,,0,292,292,292,,,,,,,,,,,,,,,,,,,,,ka,002,2019_Oct_05_1028,StressSession,3.2.3,59.838889828028364,
294,red,1760,0.5,,,,,,0,293,293,293,,,,,,,,,,,,,,,,,,,,,ka,002,2019_Oct_05_1028,StressSession,3.2.3,59.838889828028364,
295,red,1760,0.5,,,,,,0,294,294,294,,,,,,,,,,,,,,,,,,,,,ka,002,2019_Oct_05_1028,StressSession,3.2.3,59.838889828028364,
296,red,1760,0.5,,,,,,0,295,295,295,,,,,,,,,,,,,,,,,,,,,ka,002,2019_Oct_05_1028,StressSession,3.2.3,59.838889828028364,
297,red,1760,0.5,,,,,,0,296,296,296,,,,,,,,,,,,,,,,,,,,,ka,002,2019_Oct_05_1028,StressSession,3.2.3,59.838889828028364,
298,red,1760,0.5,,,,,,0,297,297,297,,,,,,,,,,,,,,,,,,,,,ka,002,2019_Oct_05_1028,StressSession,3.2.3,59.838889828028364,
299,red,1760,0.5,,,,,,0,298,298,298,,,,,,,,,,,,,,,,,,,,,ka,002,2019_Oct_05_1028,StressSession,3.2.3,59.838889828028364,
300,red,1760,0.5,,,,,,0,299,299,299,,,,,,,,,,,,,,,,,,,,,ka,002,2019_Oct_05_1028,StressSession,3.2.3,59.838889828028364,
,,,,,,,,,,,,,,,,,,,2019-10-05_10:37:01,5,33.234,,,,,,,,,,,,ka,002,2019_Oct_05_1028,StressSession,3.2.3,59.838889828028364,
,,,,,,,,,,,,,,,,,,,,,,8,6.657,,,,,,,,,,ka,002,2019_Oct_05_1028,StressSession,3.2.3,59.838889828028364,
,,,,red,purple,red,purple,right,,,,,0,0,0,6,,,,,,,,2019-10-05_10:40:37,right,1.227882199920714,723.043505199952,None,,,,,ka,002,2019_Oct_05_1028,StressSession,3.2.3,59.838889828028364,
,,,,purple,magenta,magenta,purple,left,,,,,0,1,1,186,,,,,,,,,left,1.4431367998477072,724.8281751999166,None,,,,,ka,002,2019_Oct_05_1028,StressSession,3.2.3,59.838889828028364,
,,,,blue,orange,orange,blue,left,,,,,0,2,2,124,,,,,,,,,left,1.7057463999371976,726.829763900023,None,,,,,ka,002,2019_Oct_05_1028,StressSession,3.2.3,59.838889828028364,
,,,,orange,blue,orange,blue,right,,,,,0,3,3,65,,,,,,,,,right,1.3812686000019312,729.0900109000504,None,,,,,ka,002,2019_Oct_05_1028,StressSession,3.2.3,59.838889828028364,
,,,,white,green,green,white,left,,,,,0,4,4,203,,,,,,,,,left,1.4264301999937743,731.0289169999305,None,,,,,ka,002,2019_Oct_05_1028,StressSession,3.2.3,59.838889828028364,
,,,,cyan,blue,blue,cyan,left,,,,,0,5,5,157,,,,,,,,,left,1.4172038999386132,733.0141712999903,None,,,,,ka,002,2019_Oct_05_1028,StressSession,3.2.3,59.838889828028364,
,,,,purple,brown,brown,purple,left,,,,,0,6,6,180,,,,,,,,,left,3.8972541999537498,734.9740130999126,None,,,,,ka,002,2019_Oct_05_1028,StressSession,3.2.3,59.838889828028364,
,,,,cyan,black,black,cyan,left,,,,,0,7,7,155,,,,,,,,,left,1.338488900102675,739.4206839001272,None,,,,,ka,002,2019_Oct_05_1028,StressSession,3.2.3,59.838889828028364,
,,,,black,cyan,black,cyan,right,,,,,0,8,8,104,,,,,,,,,right,1.8659481001086533,741.3012902999762,None,,,,,ka,002,2019_Oct_05_1028,StressSession,3.2.3,59.838889828028364,
,,,,white,yellow,white,yellow,right,,,,,0,9,9,96,,,,,,,,,right,2.0876068000216037,743.719910300104,None,,,,,ka,002,2019_Oct_05_1028,StressSession,3.2.3,59.838889828028364,
,,,,green,magenta,magenta,green,left,,,,,0,10,10,130,,,,,,,,,left,0.9923072999808937,746.3519488000311,None,,,,,ka,002,2019_Oct_05_1028,StressSession,3.2.3,59.838889828028364,
,,,,yellow,magenta,magenta,yellow,left,,,,,0,11,11,168,,,,,,,,,left,1.7310313999187201,747.8843147000298,None,,,,,ka,002,2019_Oct_05_1028,StressSession,3.2.3,59.838889828028364,
,,,,green,brown,green,brown,right,,,,,0,12,12,25,,,,,,,,,right,1.2953562999609858,750.1679185000248,None,,,,,ka,002,2019_Oct_05_1028,StressSession,3.2.3,59.838889828028364,
,,,,yellow,red,red,yellow,left,,,,,0,13,13,165,,,,,,,,,left,2.032156400149688,752.0153014000971,None,,,,,ka,002,2019_Oct_05_1028,StressSession,3.2.3,59.838889828028364,
,,,,brown,yellow,brown,yellow,right,,,,,0,14,14,87,,,,,,,,,right,1.2925255000591278,754.5947718999814,None,,,,,ka,002,2019_Oct_05_1028,StressSession,3.2.3,59.838889828028364,
,,,,green,purple,green,purple,right,,,,,0,15,15,24,,,,,,,,,right,1.1063777999952435,756.4368392000906,None,,,,,ka,002,2019_Oct_05_1028,StressSession,3.2.3,59.838889828028364,
,,,,blue,purple,purple,blue,left,,,,,0,16,16,125,,,,,,,,,left,1.1908871999476105,758.080495600123,None,,,,,ka,002,2019_Oct_05_1028,StressSession,3.2.3,59.838889828028364,
,,,,yellow,orange,orange,yellow,left,,,,,0,17,17,160,,,,,,,,,left,1.2507362999022007,759.8203811000567,None,,,,,ka,002,2019_Oct_05_1028,StressSession,3.2.3,59.838889828028364,
,,,,white,magenta,magenta,white,left,,,,,0,18,18,204,,,,,,,,,left,2.815431699855253,761.6158666000701,None,,,,,ka,002,2019_Oct_05_1028,StressSession,3.2.3,59.838889828028364,
,,,,magenta,white,magenta,white,right,,,,,0,19,19,35,,,,,,,,,right,1.1769344999920577,764.9742745999247,None,,,,,ka,002,2019_Oct_05_1028,StressSession,3.2.3,59.838889828028364,
,,,,black,purple,black,purple,right,,,,,0,20,20,107,,,,,,,,,right,1.2758766000624746,766.6994604000356,None,,,,,ka,002,2019_Oct_05_1028,StressSession,3.2.3,59.838889828028364,
,,,,purple,white,white,purple,left,,,,,0,21,21,181,,,,,,,,,left,1.9687423999421299,768.5104666999541,None,,,,,ka,002,2019_Oct_05_1028,StressSession,3.2.3,59.838889828028364,
,,,,cyan,blue,cyan,blue,right,,,,,0,22,22,47,,,,,,,,,right,1.231738500064239,771.0315437999088,None,,,,,ka,002,2019_Oct_05_1028,StressSession,3.2.3,59.838889828028364,
,,,,brown,yellow,yellow,brown,left,,,,,0,23,23,197,,,,,,,,,left,2.975397099973634,772.8161573000252,None,,,,,ka,002,2019_Oct_05_1028,StressSession,3.2.3,59.838889828028364,
,,,,green,red,red,green,left,,,,,0,24,24,138,,,,,,,,,left,1.482391599798575,776.3411646001041,None,,,,,ka,002,2019_Oct_05_1028,StressSession,3.2.3,59.838889828028364,
,,,,magenta,black,magenta,black,right,,,,,0,25,25,36,,,,,,,,,right,1.5304006000515074,778.3648071999196,None,,,,,ka,002,2019_Oct_05_1028,StressSession,3.2.3,59.838889828028364,
,,,,red,purple,purple,red,left,,,,,0,26,26,116,,,,,,,,,left,2.0506039999891073,780.4447729999665,None,,,,,ka,002,2019_Oct_05_1028,StressSession,3.2.3,59.838889828028364,
,,,,cyan,magenta,cyan,magenta,right,,,,,0,27,27,49,,,,,,,,,left,1.6236346999648958,783.0478296999354,None,,,,,ka,002,2019_Oct_05_1028,StressSession,3.2.3,59.838889828028364,
,,,,magenta,brown,brown,magenta,left,,,,,0,28,28,144,,,,,,,,,left,3.2216480998322368,785.2095327000134,None,,,,,ka,002,2019_Oct_05_1028,StressSession,3.2.3,59.838889828028364,
,,,,white,yellow,yellow,white,left,,,,,0,29,29,206,,,,,,,,,left,1.0014933999627829,788.9738207999617,None,,,,,ka,002,2019_Oct_05_1028,StressSession,3.2.3,59.838889828028364,
,,,,brown,white,brown,white,right,,,,,0,30,30,80,,,,,,,,,right,1.2308664999436587,790.520788300084,None,,,,,ka,002,2019_Oct_05_1028,StressSession,3.2.3,59.838889828028364,
,,,,black,magenta,black,magenta,right,,,,,0,31,31,103,,,,,,,,,right,1.2341259000822902,792.293394099921,None,,,,,ka,002,2019_Oct_05_1028,StressSession,3.2.3,59.838889828028364,
,,,,cyan,green,cyan,green,right,,,,,0,32,32,48,,,,,,,,,right,1.7904731000307947,794.0727011999115,None,,,,,ka,002,2019_Oct_05_1028,StressSession,3.2.3,59.838889828028364,
,,,,green,black,black,green,left,,,,,0,33,33,137,,,,,,,,,left,0.8287617000751197,796.4031913999934,None,,,,,ka,002,2019_Oct_05_1028,StressSession,3.2.3,59.838889828028364,
,,,,white,orange,white,orange,right,,,,,0,34,34,97,,,,,,,,,right,1.1106996999587864,797.7765256999992,None,,,,,ka,002,2019_Oct_05_1028,StressSession,3.2.3,59.838889828028364,
,,,,brown,magenta,brown,magenta,right,,,,,0,35,35,85,,,,,,,,,right,1.386178100015968,799.4456712999381,None,,,,,ka,002,2019_Oct_05_1028,StressSession,3.2.3,59.838889828028364,
,,,,red,white,red,white,right,,,,,0,36,36,8,,,,,,,,,right,1.0686057000420988,801.3706668000668,None,,,,,ka,002,2019_Oct_05_1028,StressSession,3.2.3,59.838889828028364,
,,,,yellow,brown,brown,yellow,left,,,,,0,37,37,162,,,,,,,,,left,1.098566500004381,802.9886356000789,None,,,,,ka,002,2019_Oct_05_1028,StressSession,3.2.3,59.838889828028364,
,,,,red,orange,red,orange,right,,,,,0,38,38,5,,,,,,,,,right,1.313792600063607,804.6375981001183,None,,,,,ka,002,2019_Oct_05_1028,StressSession,3.2.3,59.838889828028364,
,,,,black,red,red,black,left,,,,,0,39,39,210,,,,,,,,,left,1.323246099986136,806.5002749999985,None,,,,,ka,002,2019_Oct_05_1028,StressSession,3.2.3,59.838889828028364,
,,,,yellow,cyan,cyan,yellow,left,,,,,0,40,40,169,,,,,,,,,left,1.2526521999388933,808.3709072000347,None,,,,,ka,002,2019_Oct_05_1028,StressSession,3.2.3,59.838889828028364,
,,,,white,purple,purple,white,left,,,,,0,41,41,208,,,,,,,,,right,1.811646900139749,810.171760499943,None,,,,,ka,002,2019_Oct_05_1028,StressSession,3.2.3,59.838889828028364,
,,,,magenta,green,green,magenta,left,,,,,0,42,42,149,,,,,,,,,left,1.3146155001595616,812.5408733999357,None,,,,,ka,002,2019_Oct_05_1028,StressSession,3.2.3,59.838889828028364,
,,,,green,red,green,red,right,,,,,0,43,43,28,,,,,,,,,right,1.5328623000532389,814.3949732000474,None,,,,,ka,002,2019_Oct_05_1028,StressSession,3.2.3,59.838889828028364,
,,,,red,blue,blue,red,left,,,,,0,44,44,110,,,,,,,,,left,1.3079782999120653,816.4593726999592,None,,,,,ka,002,2019_Oct_05_1028,StressSession,3.2.3,59.838889828028364,
,,,,white,brown,brown,white,left,,,,,0,45,45,209,,,,,,,,,left,0.8268594001419842,818.3171969999094,None,,,,,ka,002,2019_Oct_05_1028,StressSession,3.2.3,59.838889828028364,
,,,,magenta,purple,magenta,purple,right,,,,,0,46,46,33,,,,,,,,,right,1.4142533000558615,819.689258800121,None,,,,,ka,002,2019_Oct_05_1028,StressSession,3.2.3,59.838889828028364,
,,,,cyan,purple,cyan,purple,right,,,,,0,47,47,42,,,,,,,,,right,1.128620599862188,821.6473843001295,None,,,,,ka,002,2019_Oct_05_1028,StressSession,3.2.3,59.838889828028364,
,,,,red,green,green,red,left,,,,,0,48,48,111,,,,,,,,,left,0.7741274000145495,823.3134040001314,None,,,,,ka,002,2019_Oct_05_1028,StressSession,3.2.3,59.838889828028364,
,,,,white,blue,white,blue,right,,,,,0,49,49,92,,,,,,,,,right,0.978443400003016,824.6296101000626,None,,,,,ka,002,2019_Oct_05_1028,StressSession,3.2.3,59.838889828028364,
,,,,black,purple,purple,black,left,,,,,0,50,50,217,,,,,,,,,left,0.9500444000586867,826.1533941000234,None,,,,,ka,002,2019_Oct_05_1028,StressSession,3.2.3,59.838889828028364,
,,,,blue,magenta,magenta,blue,left,,,,,0,51,51,121,,,,,,,,,right,1.3683040000032634,827.6557474001311,None,,,,,ka,002,2019_Oct_05_1028,StressSession,3.2.3,59.838889828028364,
,,,,green,blue,blue,green,left,,,,,0,52,52,139,,,,,,,,,left,2.081000000005588,829.5662768001202,None,,,,,ka,002,2019_Oct_05_1028,StressSession,3.2.3,59.838889828028364,
,,,,blue,black,blue,black,right,,,,,0,53,53,18,,,,,,,,,right,1.3406723998486996,832.1946715000086,None,,,,,ka,002,2019_Oct_05_1028,StressSession,3.2.3,59.838889828028364,
,,,,green,brown,brown,green,left,,,,,0,54,54,135,,,,,,,,,left,0.8698293999768794,834.08162000007,None,,,,,ka,002,2019_Oct_05_1028,StressSession,3.2.3,59.838889828028364,
,,,,purple,blue,blue,purple,left,,,,,0,55,55,184,,,,,,,,,left,1.0984100999776274,835.4849340999499,None,,,,,ka,002,2019_Oct_05_1028,StressSession,3.2.3,59.838889828028364,
,,,,blue,purple,blue,purple,right,,,,,0,56,56,15,,,,,,,,,right,1.2017163001000881,837.1174862999469,None,,,,,ka,002,2019_Oct_05_1028,StressSession,3.2.3,59.838889828028364,
,,,,orange,yellow,orange,yellow,right,,,,,0,57,57,69,,,,,,,,,right,1.0884933001361787,838.8709182001185,None,,,,,ka,002,2019_Oct_05_1028,StressSession,3.2.3,59.838889828028364,
,,,,orange,brown,brown,orange,left,,,,,0,58,58,171,,,,,,,,,left,0.8335605999454856,840.4937805000227,None,,,,,ka,002,2019_Oct_05_1028,StressSession,3.2.3,59.838889828028364,
,,,,cyan,yellow,cyan,yellow,right,,,,,0,59,59,40,,,,,,,,,right,1.0855926000513136,841.8819468000438,None,,,,,ka,002,2019_Oct_05_1028,StressSession,3.2.3,59.838889828028364,
,,,,white,cyan,white,cyan,right,,,,,0,60,60,95,,,,,,,,,right,0.8938295000698417,843.5136506000999,None,,,,,ka,002,2019_Oct_05_1028,StressSession,3.2.3,59.838889828028364,
,,,,blue,brown,brown,blue,left,,,,,0,61,61,126,,,,,,,,,left,1.2340474999509752,844.9492890001275,None,,,,,ka,002,2019_Oct_05_1028,StressSession,3.2.3,59.838889828028364,
,,,,orange,white,orange,white,right,,,,,0,62,62,62,,,,,,,,,right,1.1329590999521315,846.7305123999249,None,,,,,ka,002,2019_Oct_05_1028,StressSession,3.2.3,59.838889828028364,
,,,,black,yellow,black,yellow,right,,,,,0,63,63,105,,,,,,,,,right,1.156233899993822,848.4120259999763,None,,,,,ka,002,2019_Oct_05_1028,StressSession,3.2.3,59.838889828028364,
,,,,purple,orange,orange,purple,left,,,,,0,64,64,189,,,,,,,,,left,1.1324410999659449,850.1150595000945,None,,,,,ka,002,2019_Oct_05_1028,StressSession,3.2.3,59.838889828028364,
,,,,white,red,red,white,left,,,,,0,65,65,201,,,,,,,,,left,1.0130392001010478,851.7941477000713,None,,,,,ka,002,2019_Oct_05_1028,StressSession,3.2.3,59.838889828028364,
,,,,orange,green,orange,green,right,,,,,0,66,66,66,,,,,,,,,right,0.9893320000264794,853.3701176000759,None,,,,,ka,002,2019_Oct_05_1028,StressSession,3.2.3,59.838889828028364,
,,,,green,white,green,white,right,,,,,0,67,67,26,,,,,,,,,right,0.9117130001541227,854.9117026000749,None,,,,,ka,002,2019_Oct_05_1028,StressSession,3.2.3,59.838889828028364,
,,,,white,purple,white,purple,right,,,,,0,68,68,98,,,,,,,,,right,1.3829069999046624,856.3764838001225,None,,,,,ka,002,2019_Oct_05_1028,StressSession,3.2.3,59.838889828028364,
,,,,orange,black,orange,black,right,,,,,0,69,69,63,,,,,,,,,right,1.5204932000488043,858.3108026001137,None,,,,,ka,002,2019_Oct_05_1028,StressSession,3.2.3,59.838889828028364,
,,,,cyan,orange,cyan,orange,right,,,,,0,70,70,41,,,,,,,,,left,2.1689822000917047,860.3746183000039,None,,,,,ka,002,2019_Oct_05_1028,StressSession,3.2.3,59.838889828028364,
,,,,yellow,purple,purple,yellow,left,,,,,0,71,71,161,,,,,,,,,left,1.230287800077349,863.09713619994,None,,,,,ka,002,2019_Oct_05_1028,StressSession,3.2.3,59.838889828028364,
,,,,blue,brown,blue,brown,right,,,,,0,72,72,16,,,,,,,,,right,2.726695799967274,864.8646615999751,None,,,,,ka,002,2019_Oct_05_1028,StressSession,3.2.3,59.838889828028364,
,,,,magenta,yellow,yellow,magenta,left,,,,,0,73,73,141,,,,,,,,,left,1.0308646999765188,868.1445623000618,None,,,,,ka,002,2019_Oct_05_1028,StressSession,3.2.3,59.838889828028364,
,,,,yellow,black,black,yellow,left,,,,,0,74,74,164,,,,,,,,,left,1.077599999960512,869.729845300084,None,,,,,ka,002,2019_Oct_05_1028,StressSession,3.2.3,59.838889828028364,
,,,,cyan,magenta,magenta,cyan,left,,,,,0,75,75,159,,,,,,,,,left,1.3232187000103295,871.3568255999126,None,,,,,ka,002,2019_Oct_05_1028,StressSession,3.2.3,59.838889828028364,
,,,,blue,cyan,cyan,blue,left,,,,,0,76,76,122,,,,,,,,,left,0.8644789000973105,873.2227582000196,None,,,,,ka,002,2019_Oct_05_1028,StressSession,3.2.3,59.838889828028364,
,,,,purple,magenta,purple,magenta,right,,,,,0,77,77,76,,,,,,,,,right,1.2059983001090586,874.6418518999126,None,,,,,ka,002,2019_Oct_05_1028,StressSession,3.2.3,59.838889828028364,
,,,,brown,orange,brown,orange,right,,,,,0,78,78,88,,,,,,,,,right,1.9247973999008536,876.3876126001123,None,,,,,ka,002,2019_Oct_05_1028,StressSession,3.2.3,59.838889828028364,
,,,,black,red,black,red,right,,,,,0,79,79,100,,,,,,,,,right,1.797927499981597,878.8576412000693,None,,,,,ka,002,2019_Oct_05_1028,StressSession,3.2.3,59.838889828028364,
,,,,yellow,green,yellow,green,right,,,,,0,80,80,57,,,,,,,,,right,0.9188524000346661,881.2092830000911,None,,,,,ka,002,2019_Oct_05_1028,StressSession,3.2.3,59.838889828028364,
,,,,black,blue,black,blue,right,,,,,0,81,81,101,,,,,,,,,right,2.159834000049159,882.6716283999849,None,,,,,ka,002,2019_Oct_05_1028,StressSession,3.2.3,59.838889828028364,
,,,,magenta,purple,purple,magenta,left,,,,,0,82,82,143,,,,,,,,,left,1.0591251000296324,885.3882361999713,None,,,,,ka,002,2019_Oct_05_1028,StressSession,3.2.3,59.838889828028364,
,,,,green,orange,green,orange,right,,,,,0,83,83,23,,,,,,,,,right,1.486565699800849,886.9849569001235,None,,,,,ka,002,2019_Oct_05_1028,StressSession,3.2.3,59.838889828028364,
,,,,green,orange,orange,green,left,,,,,0,84,84,133,,,,,,,,,left,1.5563276999164373,889.0110464999452,None,,,,,ka,002,2019_Oct_05_1028,StressSession,3.2.3,59.838889828028364,
,,,,orange,magenta,magenta,orange,left,,,,,0,85,85,177,,,,,,,,,left,1.3385433000512421,891.116749699926,None,,,,,ka,002,2019_Oct_05_1028,StressSession,3.2.3,59.838889828028364,
,,,,white,magenta,white,magenta,right,,,,,0,86,86,94,,,,,,,,,right,1.8850424999836832,893.0023568000179,None,,,,,ka,002,2019_Oct_05_1028,StressSession,3.2.3,59.838889828028364,
,,,,black,white,black,white,right,,,,,0,87,87,109,,,,,,,,,right,1.075373100116849,895.4362470000051,None,,,,,ka,002,2019_Oct_05_1028,StressSession,3.2.3,59.838889828028364,
,,,,green,black,green,black,right,,,,,0,88,88,27,,,,,,,,,right,1.5642025000415742,897.0511577001307,None,,,,,ka,002,2019_Oct_05_1028,StressSession,3.2.3,59.838889828028364,
,,,,orange,brown,orange,brown,right,,,,,0,89,89,61,,,,,,,,,right,1.101574300089851,899.1697458999697,None,,,,,ka,002,2019_Oct_05_1028,StressSession,3.2.3,59.838889828028364,
,,,,red,magenta,magenta,red,left,,,,,0,90,90,112,,,,,,,,,left,0.8576971001457423,900.8137825999875,None,,,,,ka,002,2019_Oct_05_1028,StressSession,3.2.3,59.838889828028364,
,,,,orange,cyan,orange,cyan,right,,,,,0,91,91,68,,,,,,,,,right,1.0162321000825614,902.2154908000957,None,,,,,ka,002,2019_Oct_05_1028,StressSession,3.2.3,59.838889828028364,
,,,,yellow,purple,yellow,purple,right,,,,,0,92,92,51,,,,,,,,,right,1.8013979000970721,903.7818358999211,None,,,,,ka,002,2019_Oct_05_1028,StressSession,3.2.3,59.838889828028364,
,,,,blue,orange,blue,orange,right,,,,,0,93,93,14,,,,,,,,,right,1.4831153000704944,906.1322041999083,None,,,,,ka,002,2019_Oct_05_1028,StressSession,3.2.3,59.838889828028364,
,,,,magenta,cyan,cyan,magenta,left,,,,,0,94,94,140,,,,,,,,,left,1.1427517000120133,908.168648299994,None,,,,,ka,002,2019_Oct_05_1028,StressSession,3.2.3,59.838889828028364,
,,,,blue,green,green,blue,left,,,,,0,95,95,120,,,,,,,,,left,1.2083716001361609,909.902945100097,None,,,,,ka,002,2019_Oct_05_1028,StressSession,3.2.3,59.838889828028364,
,,,,orange,black,black,orange,left,,,,,0,96,96,173,,,,,,,,,left,1.0601065999362618,911.6671130000614,None,,,,,ka,002,2019_Oct_05_1028,StressSession,3.2.3,59.838889828028364,
,,,,brown,black,black,brown,left,,,,,0,97,97,191,,,,,,,,,left,1.0745661000255495,913.2767002999317,None,,,,,ka,002,2019_Oct_05_1028,StressSession,3.2.3,59.838889828028364,
,,,,black,yellow,yellow,black,left,,,,,0,98,98,215,,,,,,,,,left,1.998937499942258,914.8965793000534,None,,,,,ka,002,2019_Oct_05_1028,StressSession,3.2.3,59.838889828028364,
,,,,purple,red,red,purple,left,,,,,0,99,99,183,,,,,,,,,left,0.9076961998362094,917.4446545999963,None,,,,,ka,002,2019_Oct_05_1028,StressSession,3.2.3,59.838889828028364,
,,,,brown,green,brown,green,right,,,,,0,100,100,84,,,,,,,,,right,0.9838775999378413,918.8956820999738,None,,,,,ka,002,2019_Oct_05_1028,StressSession,3.2.3,59.838889828028364,
,,,,green,yellow,yellow,green,left,,,,,0,101,101,132,,,,,,,,,left,1.0154240999836475,920.4240856999531,None,,,,,ka,002,2019_Oct_05_1028,StressSession,3.2.3,59.838889828028364,
,,,,green,white,white,green,left,,,,,0,102,102,136,,,,,,,,,left,0.9784115999937057,921.9812326999381,None,,,,,ka,002,2019_Oct_05_1028,StressSession,3.2.3,59.838889828028364,
,,,,red,black,black,red,left,,,,,0,103,103,119,,,,,,,,,left,1.0917754000984132,923.5075594999362,None,,,,,ka,002,2019_Oct_05_1028,StressSession,3.2.3,59.838889828028364,
,,,,white,orange,orange,white,left,,,,,0,104,104,207,,,,,,,,,left,0.965949600096792,925.1455377999227,None,,,,,ka,002,2019_Oct_05_1028,StressSession,3.2.3,59.838889828028364,
,,,,black,brown,brown,black,left,,,,,0,105,105,218,,,,,,,,,left,1.385931700002402,926.6615508999676,None,,,,,ka,002,2019_Oct_05_1028,StressSession,3.2.3,59.838889828028364,
,,,,red,orange,orange,red,left,,,,,0,106,106,115,,,,,,,,,left,1.1115919998846948,928.592010299908,None,,,,,ka,002,2019_Oct_05_1028,StressSession,3.2.3,59.838889828028364,
,,,,red,yellow,red,yellow,right,,,,,0,107,107,4,,,,,,,,,right,1.5651505999267101,930.2351146000437,None,,,,,ka,002,2019_Oct_05_1028,StressSession,3.2.3,59.838889828028364,
,,,,red,magenta,red,magenta,right,,,,,0,108,108,2,,,,,,,,,right,1.2919597001746297,932.3312977999449,None,,,,,ka,002,2019_Oct_05_1028,StressSession,3.2.3,59.838889828028364,
,,,,magenta,orange,magenta,orange,right,,,,,0,109,109,32,,,,,,,,,right,1.6098422999493778,934.1815537000075,None,,,,,ka,002,2019_Oct_05_1028,StressSession,3.2.3,59.838889828028364,
,,,,cyan,yellow,yellow,cyan,left,,,,,0,110,110,150,,,,,,,,,left,1.4576980001293123,936.3416083001066,None,,,,,ka,002,2019_Oct_05_1028,StressSession,3.2.3,59.838889828028364,
,,,,blue,white,blue,white,right,,,,,0,111,111,17,,,,,,,,,right,3.1959675999823958,938.3393345000222,None,,,,,ka,002,2019_Oct_05_1028,StressSession,3.2.3,59.838889828028364,
,,,,cyan,purple,purple,cyan,left,,,,,0,112,112,152,,,,,,,,,left,1.981471500126645,942.0898293999489,None,,,,,ka,002,2019_Oct_05_1028,StressSession,3.2.3,59.838889828028364,
,,,,purple,green,purple,green,right,,,,,0,113,113,75,,,,,,,,,right,1.2341515000443906,944.6134826999623,None,,,,,ka,002,2019_Oct_05_1028,StressSession,3.2.3,59.838889828028364,
,,,,cyan,brown,brown,cyan,left,,,,,0,114,114,153,,,,,,,,,left,1.523306499933824,946.3888401000295,None,,,,,ka,002,2019_Oct_05_1028,StressSession,3.2.3,59.838889828028364,
,,,,cyan,orange,orange,cyan,left,,,,,0,115,115,151,,,,,,,,,left,2.9623265999834985,948.4452408999205,None,,,,,ka,002,2019_Oct_05_1028,StressSession,3.2.3,59.838889828028364,
,,,,brown,purple,purple,brown,left,,,,,0,116,116,199,,,,,,,,,left,1.2179022999480367,951.9421755000949,None,,,,,ka,002,2019_Oct_05_1028,StressSession,3.2.3,59.838889828028364,
,,,,cyan,red,cyan,red,right,,,,,0,117,117,46,,,,,,,,,right,1.001056700013578,953.7023219999392,None,,,,,ka,002,2019_Oct_05_1028,StressSession,3.2.3,59.838889828028364,
,,,,magenta,red,red,magenta,left,,,,,0,118,118,147,,,,,,,,,left,0.943732500076294,955.2555690999143,None,,,,,ka,002,2019_Oct_05_1028,StressSession,3.2.3,59.838889828028364,
,,,,cyan,black,cyan,black,right,,,,,0,119,119,45,,,,,,,,,right,1.0408493999857455,956.7505280000623,None,,,,,ka,002,2019_Oct_05_1028,StressSession,3.2.3,59.838889828028364,
,,,,purple,brown,purple,brown,right,,,,,0,120,120,70,,,,,,,,,right,1.1349206999875605,958.3365923999809,None,,,,,ka,002,2019_Oct_05_1028,StressSession,3.2.3,59.838889828028364,
,,,,red,cyan,cyan,red,left,,,,,0,121,121,113,,,,,,,,,left,1.5732668000273407,960.0192102999426,None,,,,,ka,002,2019_Oct_05_1028,StressSession,3.2.3,59.838889828028364,
,,,,brown,white,white,brown,left,,,,,0,122,122,190,,,,,,,,,left,1.1303280999418348,962.1414773999713,None,,,,,ka,002,2019_Oct_05_1028,StressSession,3.2.3,59.838889828028364,
,,,,cyan,red,red,cyan,left,,,,,0,123,123,156,,,,,,,,,left,1.1824467999394983,963.8168949000537,None,,,,,ka,002,2019_Oct_05_1028,StressSession,3.2.3,59.838889828028364,
,,,,blue,red,blue,red,right,,,,,0,124,124,19,,,,,,,,,right,1.2517259998712689,965.5475864999462,None,,,,,ka,002,2019_Oct_05_1028,StressSession,3.2.3,59.838889828028364,
,,,,magenta,yellow,magenta,yellow,right,,,,,0,125,125,31,,,,,,,,,right,0.8937160999048501,967.3535249999259,None,,,,,ka,002,2019_Oct_05_1028,StressSession,3.2.3,59.838889828028364,
,,,,yellow,blue,yellow,blue,right,,,,,0,126,126,56,,,,,,,,,right,1.309590799966827,968.801852799952,None,,,,,ka,002,2019_Oct_05_1028,StressSession,3.2.3,59.838889828028364,
,,,,magenta,white,white,magenta,left,,,,,0,127,127,145,,,,,,,,,left,0.6476776998024434,970.6717747000512,None,,,,,ka,002,2019_Oct_05_1028,StressSession,3.2.3,59.838889828028364,
,,,,green,purple,purple,green,left,,,,,0,128,128,134,,,,,,,,,left,0.956874500028789,971.8671844000928,None,,,,,ka,002,2019_Oct_05_1028,StressSession,3.2.3,59.838889828028364,
,,,,red,brown,red,brown,right,,,,,0,129,129,7,,,,,,,,,right,0.8156109999399632,973.3603507000953,None,,,,,ka,002,2019_Oct_05_1028,StressSession,3.2.3,59.838889828028364,
,,,,white,blue,blue,white,left,,,,,0,130,130,202,,,,,,,,,left,1.66798619995825,974.723392700078,None,,,,,ka,002,2019_Oct_05_1028,StressSession,3.2.3,59.838889828028364,
,,,,cyan,white,white,cyan,left,,,,,0,131,131,154,,,,,,,,,left,1.4438020999077708,976.9314723999705,None,,,,,ka,002,2019_Oct_05_1028,StressSession,3.2.3,59.838889828028364,
,,,,black,orange,orange,black,left,,,,,0,132,132,216,,,,,,,,,left,2.277787399943918,978.9138102999423,None,,,,,ka,002,2019_Oct_05_1028,StressSession,3.2.3,59.838889828028364,
,,,,magenta,cyan,magenta,cyan,right,,,,,0,133,133,30,,,,,,,,,right,0.9118513001594692,981.7356569999829,None,,,,,ka,002,2019_Oct_05_1028,StressSession,3.2.3,59.838889828028364,
,,,,magenta,black,black,magenta,left,,,,,0,134,134,146,,,,,,,,,left,0.7258867998607457,983.19427550002,None,,,,,ka,002,2019_Oct_05_1028,StressSession,3.2.3,59.838889828028364,
,,,,yellow,cyan,yellow,cyan,right,,,,,0,135,135,59,,,,,,,,,right,0.9463819998782128,984.461129900068,None,,,,,ka,002,2019_Oct_05_1028,StressSession,3.2.3,59.838889828028364,
,,,,magenta,brown,magenta,brown,right,,,,,0,136,136,34,,,,,,,,,right,1.1541983000934124,985.9660396000836,None,,,,,ka,002,2019_Oct_05_1028,StressSession,3.2.3,59.838889828028364,
,,,,purple,yellow,yellow,purple,left,,,,,0,137,137,188,,,,,,,,,left,1.403459700057283,987.6681085999589,None,,,,,ka,002,2019_Oct_05_1028,StressSession,3.2.3,59.838889828028364,
,,,,orange,red,red,orange,left,,,,,0,138,138,174,,,,,,,,,left,1.003357799956575,989.6121519999579,None,,,,,ka,002,2019_Oct_05_1028,StressSession,3.2.3,59.838889828028364,
,,,,yellow,white,yellow,white,right,,,,,0,139,139,53,,,,,,,,,right,0.8999777000863105,991.1635290000122,None,,,,,ka,002,2019_Oct_05_1028,StressSession,3.2.3,59.838889828028364,
,,,,brown,orange,orange,brown,left,,,,,0,140,140,198,,,,,,,,,left,1.2740937999915332,992.6132934000343,None,,,,,ka,002,2019_Oct_05_1028,StressSession,3.2.3,59.838889828028364,
,,,,yellow,white,white,yellow,left,,,,,0,141,141,163,,,,,,,,,left,0.8988275001756847,994.4288002999965,None,,,,,ka,002,2019_Oct_05_1028,StressSession,3.2.3,59.838889828028364,
,,,,blue,yellow,yellow,blue,left,,,,,0,142,142,123,,,,,,,,,right,1.3378477999940515,995.8774039000273,None,,,,,ka,002,2019_Oct_05_1028,StressSession,3.2.3,59.838889828028364,
,,,,green,magenta,green,magenta,right,,,,,0,143,143,20,,,,,,,,,right,1.8364992998540401,997.7477184000891,None,,,,,ka,002,2019_Oct_05_1028,StressSession,3.2.3,59.838889828028364,
,,,,purple,blue,purple,blue,right,,,,,0,144,144,74,,,,,,,,,right,1.4463659999892116,1000.128988099983,None,,,,,ka,002,2019_Oct_05_1028,StressSession,3.2.3,59.838889828028364,
,,,,cyan,brown,cyan,brown,right,,,,,0,145,145,43,,,,,,,,,right,1.9792637000791728,1002.124275600072,None,,,,,ka,002,2019_Oct_05_1028,StressSession,3.2.3,59.838889828028364,
,,,,orange,red,orange,red,right,,,,,0,146,146,64,,,,,,,,,right,0.9479228998534381,1004.6596091000829,None,,,,,ka,002,2019_Oct_05_1028,StressSession,3.2.3,59.838889828028364,
,,,,white,black,black,white,left,,,,,0,147,147,200,,,,,,,,,left,1.0313886001240462,1006.1600808000658,None,,,,,ka,002,2019_Oct_05_1028,StressSession,3.2.3,59.838889828028364,
,,,,magenta,blue,blue,magenta,left,,,,,0,148,148,148,,,,,,,,,left,1.0378429000265896,1007.7454767001327,None,,,,,ka,002,2019_Oct_05_1028,StressSession,3.2.3,59.838889828028364,
,,,,blue,white,white,blue,left,,,,,0,149,149,127,,,,,,,,,left,1.1642777000088245,1009.3230739000719,None,,,,,ka,002,2019_Oct_05_1028,StressSession,3.2.3,59.838889828028364,
,,,,orange,purple,orange,purple,right,,,,,0,150,150,60,,,,,,,,,right,1.4581341000739485,1011.0451847000513,None,,,,,ka,002,2019_Oct_05_1028,StressSession,3.2.3,59.838889828028364,
,,,,black,green,green,black,left,,,,,0,151,151,212,,,,,,,,,left,0.9688200999516994,1013.0545513001271,None,,,,,ka,002,2019_Oct_05_1028,StressSession,3.2.3,59.838889828028364,
,,,,orange,white,white,orange,left,,,,,0,152,152,172,,,,,,,,,left,1.0560749999713153,1014.5755268000066,None,,,,,ka,002,2019_Oct_05_1028,StressSession,3.2.3,59.838889828028364,
,,,,black,brown,black,brown,right,,,,,0,153,153,108,,,,,,,,,right,1.0279312999919057,1016.1716825000476,None,,,,,ka,002,2019_Oct_05_1028,StressSession,3.2.3,59.838889828028364,
,,,,red,black,red,black,right,,,,,0,154,154,9,,,,,,,,,right,0.9366689000744373,1017.7348537999205,None,,,,,ka,002,2019_Oct_05_1028,StressSession,3.2.3,59.838889828028364,
,,,,purple,yellow,purple,yellow,right,,,,,0,155,155,78,,,,,,,,,right,0.931158300023526,1019.2361304999795,None,,,,,ka,002,2019_Oct_05_1028,StressSession,3.2.3,59.838889828028364,
,,,,white,red,white,red,right,,,,,0,156,156,91,,,,,,,,,right,0.9453263999894261,1020.7183159000706,None,,,,,ka,002,2019_Oct_05_1028,StressSession,3.2.3,59.838889828028364,
,,,,brown,green,green,brown,left,,,,,0,157,157,194,,,,,,,,,left,0.897726799827069,1022.2058256000746,None,,,,,ka,002,2019_Oct_05_1028,StressSession,3.2.3,59.838889828028364,
,,,,yellow,blue,blue,yellow,left,,,,,0,158,158,166,,,,,,,,,left,0.9858991999644786,1023.6536212000065,None,,,,,ka,002,2019_Oct_05_1028,StressSession,3.2.3,59.838889828028364,
,,,,purple,black,purple,black,right,,,,,0,159,159,72,,,,,,,,,right,1.0262583000585437,1025.189430099912,None,,,,,ka,002,2019_Oct_05_1028,StressSession,3.2.3,59.838889828028364,
,,,,orange,cyan,cyan,orange,left,,,,,0,160,160,178,,,,,,,,,left,0.9742584000341594,1026.7697393000126,None,,,,,ka,002,2019_Oct_05_1028,StressSession,3.2.3,59.838889828028364,
,,,,magenta,red,magenta,red,right,,,,,0,161,161,37,,,,,,,,,right,0.7106381000485271,1028.289008300053,None,,,,,ka,002,2019_Oct_05_1028,StressSession,3.2.3,59.838889828028364,
,,,,purple,black,black,purple,left,,,,,0,162,162,182,,,,,,,,,left,0.9341255999170244,1029.553266900126,None,,,,,ka,002,2019_Oct_05_1028,StressSession,3.2.3,59.838889828028364,
,,,,black,white,white,black,left,,,,,0,163,163,219,,,,,,,,,left,0.9554316999856383,1031.0367684001103,None,,,,,ka,002,2019_Oct_05_1028,StressSession,3.2.3,59.838889828028364,
,,,,cyan,green,green,cyan,left,,,,,0,164,164,158,,,,,,,,,left,1.1617364999838173,1032.5419628000818,None,,,,,ka,002,2019_Oct_05_1028,StressSession,3.2.3,59.838889828028364,
,,,,red,green,red,green,right,,,,,0,165,165,1,,,,,,,,,right,1.1119300001300871,1034.24756300007,None,,,,,ka,002,2019_Oct_05_1028,StressSession,3.2.3,59.838889828028364,
,,,,blue,cyan,blue,cyan,right,,,,,0,166,166,12,,,,,,,,,right,1.1075873000081629,1035.900688600028,None,,,,,ka,002,2019_Oct_05_1028,StressSession,3.2.3,59.838889828028364,
,,,,purple,white,purple,white,right,,,,,0,167,167,71,,,,,,,,,right,0.9119869000278413,1037.55135590001,None,,,,,ka,002,2019_Oct_05_1028,StressSession,3.2.3,59.838889828028364,
,,,,purple,red,purple,red,right,,,,,0,168,168,73,,,,,,,,,right,0.9102082999888808,1039.0013041000348,None,,,,,ka,002,2019_Oct_05_1028,StressSession,3.2.3,59.838889828028364,
,,,,purple,orange,purple,orange,right,,,,,0,169,169,79,,,,,,,,,right,1.4702685999218374,1040.4573117999826,None,,,,,ka,002,2019_Oct_05_1028,StressSession,3.2.3,59.838889828028364,
,,,,yellow,orange,yellow,orange,right,,,,,0,170,170,50,,,,,,,,,right,0.9507643999531865,1042.4805340999737,None,,,,,ka,002,2019_Oct_05_1028,StressSession,3.2.3,59.838889828028364,
,,,,green,blue,green,blue,right,,,,,0,171,171,29,,,,,,,,,right,1.0665069001261145,1043.9810101001058,None,,,,,ka,002,2019_Oct_05_1028,StressSession,3.2.3,59.838889828028364,
,,,,brown,magenta,magenta,brown,left,,,,,0,172,172,195,,,,,,,,,left,1.0673042999114841,1045.6054124000948,None,,,,,ka,002,2019_Oct_05_1028,StressSession,3.2.3,59.838889828028364,
,,,,magenta,blue,magenta,blue,right,,,,,0,173,173,38,,,,,,,,,right,0.9555061000864953,1047.211874499917,None,,,,,ka,002,2019_Oct_05_1028,StressSession,3.2.3,59.838889828028364,
,,,,blue,green,blue,green,right,,,,,0,174,174,10,,,,,,,,,right,1.9084178998600692,1048.7151532999706,None,,,,,ka,002,2019_Oct_05_1028,StressSession,3.2.3,59.838889828028364,
,,,,white,green,white,green,right,,,,,0,175,175,93,,,,,,,,,right,1.226528799859807,1051.157073700102,None,,,,,ka,002,2019_Oct_05_1028,StressSession,3.2.3,59.838889828028364,
,,,,orange,purple,purple,orange,left,,,,,0,176,176,170,,,,,,,,,right,0.8989826999604702,1052.9407317000441,None,,,,,ka,002,2019_Oct_05_1028,StressSession,3.2.3,59.838889828028364,
,,,,purple,green,green,purple,left,,,,,0,177,177,185,,,,,,,,,left,1.7477792999707162,1054.3798323001247,None,,,,,ka,002,2019_Oct_05_1028,StressSession,3.2.3,59.838889828028364,
,,,,white,brown,white,brown,right,,,,,0,178,178,99,,,,,,,,,right,1.0490931998938322,1056.6784201001283,None,,,,,ka,002,2019_Oct_05_1028,StressSession,3.2.3,59.838889828028364,
,,,,purple,cyan,purple,cyan,right,,,,,0,179,179,77,,,,,,,,,right,1.2623850000090897,1058.281096599996,None,,,,,ka,002,2019_Oct_05_1028,StressSession,3.2.3,59.838889828028364,
,,,,yellow,magenta,yellow,magenta,right,,,,,0,180,180,58,,,,,,,,,right,1.2259627000894397,1060.10142359999,None,,,,,ka,002,2019_Oct_05_1028,StressSession,3.2.3,59.838889828028364,
,,,,white,cyan,cyan,white,left,,,,,0,181,181,205,,,,,,,,,left,1.714143400080502,1061.8772196001373,None,,,,,ka,002,2019_Oct_05_1028,StressSession,3.2.3,59.838889828028364,
,,,,orange,magenta,orange,magenta,right,,,,,0,182,182,67,,,,,,,,,right,0.8211833999957889,1064.147002800135,None,,,,,ka,002,2019_Oct_05_1028,StressSession,3.2.3,59.838889828028364,
,,,,blue,black,black,blue,left,,,,,0,183,183,128,,,,,,,,,right,0.9474486999679357,1065.5080991999712,None,,,,,ka,002,2019_Oct_05_1028,StressSession,3.2.3,59.838889828028364,
,,,,magenta,orange,orange,magenta,left,,,,,0,184,184,142,,,,,,,,,left,1.0984513000585139,1067.0131820999086,None,,,,,ka,002,2019_Oct_05_1028,StressSession,3.2.3,59.838889828028364,
,,,,cyan,white,cyan,white,right,,,,,0,185,185,44,,,,,,,,,left,1.37089699995704,1068.6606197000947,None,,,,,ka,002,2019_Oct_05_1028,StressSession,3.2.3,59.838889828028364,
,,,,yellow,green,green,yellow,left,,,,,0,186,186,167,,,,,,,,,left,2.079591999994591,1070.5758748000953,None,,,,,ka,002,2019_Oct_05_1028,StressSession,3.2.3,59.838889828028364,
,,,,brown,black,brown,black,right,,,,,0,187,187,81,,,,,,,,,right,0.9762244001030922,1073.2073127999902,None,,,,,ka,002,2019_Oct_05_1028,StressSession,3.2.3,59.838889828028364,
,,,,brown,cyan,brown,cyan,right,,,,,0,188,188,86,,,,,,,,,right,1.4547864999622107,1074.7127289001364,None,,,,,ka,002,2019_Oct_05_1028,StressSession,3.2.3,59.838889828028364,
,,,,blue,yellow,blue,yellow,right,,,,,0,189,189,13,,,,,,,,,right,0.8836006999481469,1076.7077673999593,None,,,,,ka,002,2019_Oct_05_1028,StressSession,3.2.3,59.838889828028364,
,,,,brown,blue,brown,blue,right,,,,,0,190,190,83,,,,,,,,,right,1.8527147001586854,1078.1388042001054,None,,,,,ka,002,2019_Oct_05_1028,StressSession,3.2.3,59.838889828028364,
,,,,black,orange,black,orange,right,,,,,0,191,191,106,,,,,,,,,right,1.190183199942112,1080.5374425000045,None,,,,,ka,002,2019_Oct_05_1028,StressSession,3.2.3,59.838889828028364,
,,,,brown,purple,brown,purple,right,,,,,0,192,192,89,,,,,,,,,right,0.9814956001937389,1082.273931399919,None,,,,,ka,002,2019_Oct_05_1028,StressSession,3.2.3,59.838889828028364,
,,,,brown,red,brown,red,right,,,,,0,193,193,82,,,,,,,,,right,0.7440929999575019,1083.7914909999818,None,,,,,ka,002,2019_Oct_05_1028,StressSession,3.2.3,59.838889828028364,
,,,,blue,magenta,blue,magenta,right,,,,,0,194,194,11,,,,,,,,,right,0.7821818999946117,1085.0891565999482,None,,,,,ka,002,2019_Oct_05_1028,StressSession,3.2.3,59.838889828028364,
,,,,green,cyan,green,cyan,right,,,,,0,195,195,21,,,,,,,,,right,1.1504714998882264,1086.4250753000379,None,,,,,ka,002,2019_Oct_05_1028,StressSession,3.2.3,59.838889828028364,
,,,,red,brown,brown,red,left,,,,,0,196,196,117,,,,,,,,,left,1.1698417000006884,1088.1175643000752,None,,,,,ka,002,2019_Oct_05_1028,StressSession,3.2.3,59.838889828028364,
,,,,yellow,brown,yellow,brown,right,,,,,0,197,197,52,,,,,,,,,right,1.321456299861893,1089.8379375999793,None,,,,,ka,002,2019_Oct_05_1028,StressSession,3.2.3,59.838889828028364,
,,,,white,black,white,black,right,,,,,0,198,198,90,,,,,,,,,right,1.0646645999513566,1091.7026681001298,None,,,,,ka,002,2019_Oct_05_1028,StressSession,3.2.3,59.838889828028364,
,,,,brown,red,red,brown,left,,,,,0,199,199,192,,,,,,,,,left,1.3438941000495106,1093.31961710006,None,,,,,ka,002,2019_Oct_05_1028,StressSession,3.2.3,59.838889828028364,
,,,,red,blue,red,blue,right,,,,,0,200,200,0,,,,,,,,,right,1.061545099830255,1095.1940895000007,None,,,,,ka,002,2019_Oct_05_1028,StressSession,3.2.3,59.838889828028364,
,,,,blue,red,red,blue,left,,,,,0,201,201,129,,,,,,,,,right,0.8739771000109613,1096.789728899952,None,,,,,ka,002,2019_Oct_05_1028,StressSession,3.2.3,59.838889828028364,
,,,,orange,yellow,yellow,orange,left,,,,,0,202,202,179,,,,,,,,,left,2.7483912999741733,1098.203089500079,None,,,,,ka,002,2019_Oct_05_1028,StressSession,3.2.3,59.838889828028364,
,,,,yellow,black,yellow,black,right,,,,,0,203,203,54,,,,,,,,,right,1.190089900046587,1101.4976538999472,None,,,,,ka,002,2019_Oct_05_1028,StressSession,3.2.3,59.838889828028364,
,,,,black,blue,blue,black,left,,,,,0,204,204,211,,,,,,,,,left,2.26510570012033,1103.2304015001282,None,,,,,ka,002,2019_Oct_05_1028,StressSession,3.2.3,59.838889828028364,
,,,,red,yellow,yellow,red,left,,,,,0,205,205,114,,,,,,,,,left,1.150098399957642,1106.0334914000705,None,,,,,ka,002,2019_Oct_05_1028,StressSession,3.2.3,59.838889828028364,
,,,,orange,green,green,orange,left,,,,,0,206,206,176,,,,,,,,,right,1.2240210000891238,1107.7433617999777,None,,,,,ka,002,2019_Oct_05_1028,StressSession,3.2.3,59.838889828028364,
,,,,green,cyan,cyan,green,left,,,,,0,207,207,131,,,,,,,,,left,1.3132773998659104,1109.5181978999171,None,,,,,ka,002,2019_Oct_05_1028,StressSession,3.2.3,59.838889828028364,
,,,,black,cyan,cyan,black,left,,,,,0,208,208,214,,,,,,,,,left,1.1964692999608815,1111.379180500051,None,,,,,ka,002,2019_Oct_05_1028,StressSession,3.2.3,59.838889828028364,
,,,,black,green,black,green,right,,,,,0,209,209,102,,,,,,,,,right,1.2250354001298547,1113.1103844000027,None,,,,,ka,002,2019_Oct_05_1028,StressSession,3.2.3,59.838889828028364,
,,,,brown,cyan,cyan,brown,left,,,,,0,210,210,196,,,,,,,,,right,1.1585830999538302,1114.881544600008,None,,,,,ka,002,2019_Oct_05_1028,StressSession,3.2.3,59.838889828028364,
,,,,red,white,white,red,left,,,,,0,211,211,118,,,,,,,,,left,2.0620828000828624,1116.5779838999733,None,,,,,ka,002,2019_Oct_05_1028,StressSession,3.2.3,59.838889828028364,
,,,,yellow,red,yellow,red,right,,,,,0,212,212,55,,,,,,,,,right,1.914725200040266,1119.1806441000663,None,,,,,ka,002,2019_Oct_05_1028,StressSession,3.2.3,59.838889828028364,
,,,,green,yellow,green,yellow,right,,,,,0,213,213,22,,,,,,,,,right,1.7994337000418454,1121.6480894999113,None,,,,,ka,002,2019_Oct_05_1028,StressSession,3.2.3,59.838889828028364,
,,,,orange,blue,blue,orange,left,,,,,0,214,214,175,,,,,,,,,left,1.3611194998957217,1123.9982479999308,None,,,,,ka,002,2019_Oct_05_1028,StressSession,3.2.3,59.838889828028364,
,,,,magenta,green,magenta,green,right,,,,,0,215,215,39,,,,,,,,,right,0.8597378998529166,1125.9157324999105,None,,,,,ka,002,2019_Oct_05_1028,StressSession,3.2.3,59.838889828028364,
,,,,brown,blue,blue,brown,left,,,,,0,216,216,193,,,,,,,,,left,1.6745976000092924,1127.3248397000134,None,,,,,ka,002,2019_Oct_05_1028,StressSession,3.2.3,59.838889828028364,
,,,,black,magenta,magenta,black,left,,,,,0,217,217,213,,,,,,,,,left,1.069599699927494,1129.5460614000913,None,,,,,ka,002,2019_Oct_05_1028,StressSession,3.2.3,59.838889828028364,
,,,,red,cyan,red,cyan,right,,,,,0,218,218,3,,,,,,,,,right,0.787240499863401,1131.1563003000338,None,,,,,ka,002,2019_Oct_05_1028,StressSession,3.2.3,59.838889828028364,
,,,,purple,cyan,cyan,purple,left,,,,,0,219,219,187,,,,,,,,,left,1.1100709999445826,1132.4975076001137,None,,,,,ka,002,2019_Oct_05_1028,StressSession,3.2.3,59.838889828028364,
,,,,,,,,,,,,,,,,,,,,3,25.019,,,,,,,,2019-10-05_10:47:30,,,,ka,002,2019_Oct_05_1028,StressSession,3.2.3,59.838889828028364,
,,,,,,,,,,,,,,,,,,,,,,4,7.27,,,,,,,,,,ka,002,2019_Oct_05_1028,StressSession,3.2.3,59.838889828028364,
,,,,,,,,,,,,,,,,,,,,2,9.096,,,,,,,,,2019-10-05_10:48:54,2019-10-05_10:53:54,,ka,002,2019_Oct_05_1028,StressSession,3.2.3,59.838889828028364,
,,,,,,,,,,,,,,,,,,,,,,,,,,,,,,,,2019-10-05_10:54:05,,,,,,,
