Tick,Color,Tone,TimeDur,WordItem,WordColor,AnsLeft,AnsRight,AnsCorr,tick.thisRepN,tick.thisTrialN,tick.thisN,tick.thisIndex,stroop_trials.thisRepN,stroop_trials.thisTrialN,stroop_trials.thisN,stroop_trials.thisIndex,start_session_two,start_stress_one,end_stress_one,rating_evaluation_one.response,rating_evaluation_one.rt,rating_evaluation_two.response,rating_evaluation_two.rt,start_stress_two,key_resp_part_two_meas.keys,key_resp_part_two_meas.rt,key_resp_part_two_meas.started,key_resp_part_two_meas.stopped,end_stress_two,start_cooldown_measurement,end_cooldown_measurement,end_session_two,participant,session,date,expName,psychopyVersion,frameRate,
1,green,440,1.0,,,,,,0,0,0,0,,,,,2019-09-23_17:57:12,2019-09-23_17:57:35,,,,,,,,,,,,,,,fw2,002,2019_Sep_23_1757,StressSession,3.2.3,59.99167315172541,
2,green,440,1.0,,,,,,0,1,1,1,,,,,,,,,,,,,,,,,,,,,fw2,002,2019_Sep_23_1757,StressSession,3.2.3,59.99167315172541,
3,green,440,1.0,,,,,,0,2,2,2,,,,,,,,,,,,,,,,,,,,,fw2,002,2019_Sep_23_1757,StressSession,3.2.3,59.99167315172541,
4,green,440,1.0,,,,,,0,3,3,3,,,,,,,,,,,,,,,,,,,,,fw2,002,2019_Sep_23_1757,StressSession,3.2.3,59.99167315172541,
5,green,440,1.0,,,,,,0,4,4,4,,,,,,,,,,,,,,,,,,,,,fw2,002,2019_Sep_23_1757,StressSession,3.2.3,59.99167315172541,
6,green,440,1.0,,,,,,0,5,5,5,,,,,,,,,,,,,,,,,,,,,fw2,002,2019_Sep_23_1757,StressSession,3.2.3,59.99167315172541,
7,green,440,1.0,,,,,,0,6,6,6,,,,,,,,,,,,,,,,,,,,,fw2,002,2019_Sep_23_1757,StressSession,3.2.3,59.99167315172541,
8,green,440,1.0,,,,,,0,7,7,7,,,,,,,,,,,,,,,,,,,,,fw2,002,2019_Sep_23_1757,StressSession,3.2.3,59.99167315172541,
9,green,440,1.0,,,,,,0,8,8,8,,,,,,,,,,,,,,,,,,,,,fw2,002,2019_Sep_23_1757,StressSession,3.2.3,59.99167315172541,
10,green,440,1.0,,,,,,0,9,9,9,,,,,,,,,,,,,,,,,,,,,fw2,002,2019_Sep_23_1757,StressSession,3.2.3,59.99167315172541,
11,green,440,1.0,,,,,,0,10,10,10,,,,,,,,,,,,,,,,,,,,,fw2,002,2019_Sep_23_1757,StressSession,3.2.3,59.99167315172541,
12,green,440,1.0,,,,,,0,11,11,11,,,,,,,,,,,,,,,,,,,,,fw2,002,2019_Sep_23_1757,StressSession,3.2.3,59.99167315172541,
13,green,440,1.0,,,,,,0,12,12,12,,,,,,,,,,,,,,,,,,,,,fw2,002,2019_Sep_23_1757,StressSession,3.2.3,59.99167315172541,
14,green,440,1.0,,,,,,0,13,13,13,,,,,,,,,,,,,,,,,,,,,fw2,002,2019_Sep_23_1757,StressSession,3.2.3,59.99167315172541,
15,green,440,1.0,,,,,,0,14,14,14,,,,,,,,,,,,,,,,,,,,,fw2,002,2019_Sep_23_1757,StressSession,3.2.3,59.99167315172541,
16,green,440,1.0,,,,,,0,15,15,15,,,,,,,,,,,,,,,,,,,,,fw2,002,2019_Sep_23_1757,StressSession,3.2.3,59.99167315172541,
17,green,440,1.0,,,,,,0,16,16,16,,,,,,,,,,,,,,,,,,,,,fw2,002,2019_Sep_23_1757,StressSession,3.2.3,59.99167315172541,
18,green,440,1.0,,,,,,0,17,17,17,,,,,,,,,,,,,,,,,,,,,fw2,002,2019_Sep_23_1757,StressSession,3.2.3,59.99167315172541,
19,green,440,1.0,,,,,,0,18,18,18,,,,,,,,,,,,,,,,,,,,,fw2,002,2019_Sep_23_1757,StressSession,3.2.3,59.99167315172541,
20,green,440,1.0,,,,,,0,19,19,19,,,,,,,,,,,,,,,,,,,,,fw2,002,2019_Sep_23_1757,StressSession,3.2.3,59.99167315172541,
21,green,440,1.0,,,,,,0,20,20,20,,,,,,,,,,,,,,,,,,,,,fw2,002,2019_Sep_23_1757,StressSession,3.2.3,59.99167315172541,
22,green,440,1.0,,,,,,0,21,21,21,,,,,,,,,,,,,,,,,,,,,fw2,002,2019_Sep_23_1757,StressSession,3.2.3,59.99167315172541,
23,green,440,1.0,,,,,,0,22,22,22,,,,,,,,,,,,,,,,,,,,,fw2,002,2019_Sep_23_1757,StressSession,3.2.3,59.99167315172541,
24,green,440,1.0,,,,,,0,23,23,23,,,,,,,,,,,,,,,,,,,,,fw2,002,2019_Sep_23_1757,StressSession,3.2.3,59.99167315172541,
25,green,440,1.0,,,,,,0,24,24,24,,,,,,,,,,,,,,,,,,,,,fw2,002,2019_Sep_23_1757,StressSession,3.2.3,59.99167315172541,
26,green,440,1.0,,,,,,0,25,25,25,,,,,,,,,,,,,,,,,,,,,fw2,002,2019_Sep_23_1757,StressSession,3.2.3,59.99167315172541,
27,green,440,1.0,,,,,,0,26,26,26,,,,,,,,,,,,,,,,,,,,,fw2,002,2019_Sep_23_1757,StressSession,3.2.3,59.99167315172541,
28,green,440,1.0,,,,,,0,27,27,27,,,,,,,,,,,,,,,,,,,,,fw2,002,2019_Sep_23_1757,StressSession,3.2.3,59.99167315172541,
29,green,440,1.0,,,,,,0,28,28,28,,,,,,,,,,,,,,,,,,,,,fw2,002,2019_Sep_23_1757,StressSession,3.2.3,59.99167315172541,
30,green,440,1.0,,,,,,0,29,29,29,,,,,,,,,,,,,,,,,,,,,fw2,002,2019_Sep_23_1757,StressSession,3.2.3,59.99167315172541,
31,green,440,1.0,,,,,,0,30,30,30,,,,,,,,,,,,,,,,,,,,,fw2,002,2019_Sep_23_1757,StressSession,3.2.3,59.99167315172541,
32,green,440,1.0,,,,,,0,31,31,31,,,,,,,,,,,,,,,,,,,,,fw2,002,2019_Sep_23_1757,StressSession,3.2.3,59.99167315172541,
33,green,440,1.0,,,,,,0,32,32,32,,,,,,,,,,,,,,,,,,,,,fw2,002,2019_Sep_23_1757,StressSession,3.2.3,59.99167315172541,
34,green,440,1.0,,,,,,0,33,33,33,,,,,,,,,,,,,,,,,,,,,fw2,002,2019_Sep_23_1757,StressSession,3.2.3,59.99167315172541,
35,green,440,1.0,,,,,,0,34,34,34,,,,,,,,,,,,,,,,,,,,,fw2,002,2019_Sep_23_1757,StressSession,3.2.3,59.99167315172541,
36,green,440,1.0,,,,,,0,35,35,35,,,,,,,,,,,,,,,,,,,,,fw2,002,2019_Sep_23_1757,StressSession,3.2.3,59.99167315172541,
37,green,440,1.0,,,,,,0,36,36,36,,,,,,,,,,,,,,,,,,,,,fw2,002,2019_Sep_23_1757,StressSession,3.2.3,59.99167315172541,
38,green,440,1.0,,,,,,0,37,37,37,,,,,,,,,,,,,,,,,,,,,fw2,002,2019_Sep_23_1757,StressSession,3.2.3,59.99167315172541,
39,green,440,1.0,,,,,,0,38,38,38,,,,,,,,,,,,,,,,,,,,,fw2,002,2019_Sep_23_1757,StressSession,3.2.3,59.99167315172541,
40,green,440,1.0,,,,,,0,39,39,39,,,,,,,,,,,,,,,,,,,,,fw2,002,2019_Sep_23_1757,StressSession,3.2.3,59.99167315172541,
41,green,440,1.0,,,,,,0,40,40,40,,,,,,,,,,,,,,,,,,,,,fw2,002,2019_Sep_23_1757,StressSession,3.2.3,59.99167315172541,
42,green,440,1.0,,,,,,0,41,41,41,,,,,,,,,,,,,,,,,,,,,fw2,002,2019_Sep_23_1757,StressSession,3.2.3,59.99167315172541,
43,green,440,1.0,,,,,,0,42,42,42,,,,,,,,,,,,,,,,,,,,,fw2,002,2019_Sep_23_1757,StressSession,3.2.3,59.99167315172541,
44,green,440,1.0,,,,,,0,43,43,43,,,,,,,,,,,,,,,,,,,,,fw2,002,2019_Sep_23_1757,StressSession,3.2.3,59.99167315172541,
45,green,440,1.0,,,,,,0,44,44,44,,,,,,,,,,,,,,,,,,,,,fw2,002,2019_Sep_23_1757,StressSession,3.2.3,59.99167315172541,
46,green,440,1.0,,,,,,0,45,45,45,,,,,,,,,,,,,,,,,,,,,fw2,002,2019_Sep_23_1757,StressSession,3.2.3,59.99167315172541,
47,green,440,1.0,,,,,,0,46,46,46,,,,,,,,,,,,,,,,,,,,,fw2,002,2019_Sep_23_1757,StressSession,3.2.3,59.99167315172541,
48,green,440,1.0,,,,,,0,47,47,47,,,,,,,,,,,,,,,,,,,,,fw2,002,2019_Sep_23_1757,StressSession,3.2.3,59.99167315172541,
49,green,440,1.0,,,,,,0,48,48,48,,,,,,,,,,,,,,,,,,,,,fw2,002,2019_Sep_23_1757,StressSession,3.2.3,59.99167315172541,
50,green,440,1.0,,,,,,0,49,49,49,,,,,,,,,,,,,,,,,,,,,fw2,002,2019_Sep_23_1757,StressSession,3.2.3,59.99167315172541,
51,green,440,1.0,,,,,,0,50,50,50,,,,,,,,,,,,,,,,,,,,,fw2,002,2019_Sep_23_1757,StressSession,3.2.3,59.99167315172541,
52,green,440,1.0,,,,,,0,51,51,51,,,,,,,,,,,,,,,,,,,,,fw2,002,2019_Sep_23_1757,StressSession,3.2.3,59.99167315172541,
53,green,440,1.0,,,,,,0,52,52,52,,,,,,,,,,,,,,,,,,,,,fw2,002,2019_Sep_23_1757,StressSession,3.2.3,59.99167315172541,
54,green,440,1.0,,,,,,0,53,53,53,,,,,,,,,,,,,,,,,,,,,fw2,002,2019_Sep_23_1757,StressSession,3.2.3,59.99167315172541,
55,green,440,1.0,,,,,,0,54,54,54,,,,,,,,,,,,,,,,,,,,,fw2,002,2019_Sep_23_1757,StressSession,3.2.3,59.99167315172541,
56,green,440,1.0,,,,,,0,55,55,55,,,,,,,,,,,,,,,,,,,,,fw2,002,2019_Sep_23_1757,StressSession,3.2.3,59.99167315172541,
57,green,440,1.0,,,,,,0,56,56,56,,,,,,,,,,,,,,,,,,,,,fw2,002,2019_Sep_23_1757,StressSession,3.2.3,59.99167315172541,
58,green,440,1.0,,,,,,0,57,57,57,,,,,,,,,,,,,,,,,,,,,fw2,002,2019_Sep_23_1757,StressSession,3.2.3,59.99167315172541,
59,green,440,1.0,,,,,,0,58,58,58,,,,,,,,,,,,,,,,,,,,,fw2,002,2019_Sep_23_1757,StressSession,3.2.3,59.99167315172541,
60,green,440,1.0,,,,,,0,59,59,59,,,,,,,,,,,,,,,,,,,,,fw2,002,2019_Sep_23_1757,StressSession,3.2.3,59.99167315172541,
61,green,440,1.0,,,,,,0,60,60,60,,,,,,,,,,,,,,,,,,,,,fw2,002,2019_Sep_23_1757,StressSession,3.2.3,59.99167315172541,
62,green,440,1.0,,,,,,0,61,61,61,,,,,,,,,,,,,,,,,,,,,fw2,002,2019_Sep_23_1757,StressSession,3.2.3,59.99167315172541,
63,green,440,1.0,,,,,,0,62,62,62,,,,,,,,,,,,,,,,,,,,,fw2,002,2019_Sep_23_1757,StressSession,3.2.3,59.99167315172541,
64,green,440,1.0,,,,,,0,63,63,63,,,,,,,,,,,,,,,,,,,,,fw2,002,2019_Sep_23_1757,StressSession,3.2.3,59.99167315172541,
65,green,440,1.0,,,,,,0,64,64,64,,,,,,,,,,,,,,,,,,,,,fw2,002,2019_Sep_23_1757,StressSession,3.2.3,59.99167315172541,
66,green,440,1.0,,,,,,0,65,65,65,,,,,,,,,,,,,,,,,,,,,fw2,002,2019_Sep_23_1757,StressSession,3.2.3,59.99167315172541,
67,green,440,1.0,,,,,,0,66,66,66,,,,,,,,,,,,,,,,,,,,,fw2,002,2019_Sep_23_1757,StressSession,3.2.3,59.99167315172541,
68,green,440,1.0,,,,,,0,67,67,67,,,,,,,,,,,,,,,,,,,,,fw2,002,2019_Sep_23_1757,StressSession,3.2.3,59.99167315172541,
69,green,440,1.0,,,,,,0,68,68,68,,,,,,,,,,,,,,,,,,,,,fw2,002,2019_Sep_23_1757,StressSession,3.2.3,59.99167315172541,
70,green,440,1.0,,,,,,0,69,69,69,,,,,,,,,,,,,,,,,,,,,fw2,002,2019_Sep_23_1757,StressSession,3.2.3,59.99167315172541,
71,green,440,1.0,,,,,,0,70,70,70,,,,,,,,,,,,,,,,,,,,,fw2,002,2019_Sep_23_1757,StressSession,3.2.3,59.99167315172541,
72,green,440,1.0,,,,,,0,71,71,71,,,,,,,,,,,,,,,,,,,,,fw2,002,2019_Sep_23_1757,StressSession,3.2.3,59.99167315172541,
73,green,440,1.0,,,,,,0,72,72,72,,,,,,,,,,,,,,,,,,,,,fw2,002,2019_Sep_23_1757,StressSession,3.2.3,59.99167315172541,
74,green,440,1.0,,,,,,0,73,73,73,,,,,,,,,,,,,,,,,,,,,fw2,002,2019_Sep_23_1757,StressSession,3.2.3,59.99167315172541,
75,green,440,1.0,,,,,,0,74,74,74,,,,,,,,,,,,,,,,,,,,,fw2,002,2019_Sep_23_1757,StressSession,3.2.3,59.99167315172541,
76,green,440,1.0,,,,,,0,75,75,75,,,,,,,,,,,,,,,,,,,,,fw2,002,2019_Sep_23_1757,StressSession,3.2.3,59.99167315172541,
77,green,440,1.0,,,,,,0,76,76,76,,,,,,,,,,,,,,,,,,,,,fw2,002,2019_Sep_23_1757,StressSession,3.2.3,59.99167315172541,
78,green,440,1.0,,,,,,0,77,77,77,,,,,,,,,,,,,,,,,,,,,fw2,002,2019_Sep_23_1757,StressSession,3.2.3,59.99167315172541,
79,green,440,1.0,,,,,,0,78,78,78,,,,,,,,,,,,,,,,,,,,,fw2,002,2019_Sep_23_1757,StressSession,3.2.3,59.99167315172541,
80,green,440,1.0,,,,,,0,79,79,79,,,,,,,,,,,,,,,,,,,,,fw2,002,2019_Sep_23_1757,StressSession,3.2.3,59.99167315172541,
81,green,440,1.0,,,,,,0,80,80,80,,,,,,,,,,,,,,,,,,,,,fw2,002,2019_Sep_23_1757,StressSession,3.2.3,59.99167315172541,
82,green,440,1.0,,,,,,0,81,81,81,,,,,,,,,,,,,,,,,,,,,fw2,002,2019_Sep_23_1757,StressSession,3.2.3,59.99167315172541,
83,green,440,1.0,,,,,,0,82,82,82,,,,,,,,,,,,,,,,,,,,,fw2,002,2019_Sep_23_1757,StressSession,3.2.3,59.99167315172541,
84,green,440,1.0,,,,,,0,83,83,83,,,,,,,,,,,,,,,,,,,,,fw2,002,2019_Sep_23_1757,StressSession,3.2.3,59.99167315172541,
85,green,440,1.0,,,,,,0,84,84,84,,,,,,,,,,,,,,,,,,,,,fw2,002,2019_Sep_23_1757,StressSession,3.2.3,59.99167315172541,
86,green,440,1.0,,,,,,0,85,85,85,,,,,,,,,,,,,,,,,,,,,fw2,002,2019_Sep_23_1757,StressSession,3.2.3,59.99167315172541,
87,green,440,1.0,,,,,,0,86,86,86,,,,,,,,,,,,,,,,,,,,,fw2,002,2019_Sep_23_1757,StressSession,3.2.3,59.99167315172541,
88,green,440,1.0,,,,,,0,87,87,87,,,,,,,,,,,,,,,,,,,,,fw2,002,2019_Sep_23_1757,StressSession,3.2.3,59.99167315172541,
89,green,440,1.0,,,,,,0,88,88,88,,,,,,,,,,,,,,,,,,,,,fw2,002,2019_Sep_23_1757,StressSession,3.2.3,59.99167315172541,
90,green,440,1.0,,,,,,0,89,89,89,,,,,,,,,,,,,,,,,,,,,fw2,002,2019_Sep_23_1757,StressSession,3.2.3,59.99167315172541,
91,green,440,1.0,,,,,,0,90,90,90,,,,,,,,,,,,,,,,,,,,,fw2,002,2019_Sep_23_1757,StressSession,3.2.3,59.99167315172541,
92,green,440,1.0,,,,,,0,91,91,91,,,,,,,,,,,,,,,,,,,,,fw2,002,2019_Sep_23_1757,StressSession,3.2.3,59.99167315172541,
93,green,440,1.0,,,,,,0,92,92,92,,,,,,,,,,,,,,,,,,,,,fw2,002,2019_Sep_23_1757,StressSession,3.2.3,59.99167315172541,
94,green,440,1.0,,,,,,0,93,93,93,,,,,,,,,,,,,,,,,,,,,fw2,002,2019_Sep_23_1757,StressSession,3.2.3,59.99167315172541,
95,green,440,1.0,,,,,,0,94,94,94,,,,,,,,,,,,,,,,,,,,,fw2,002,2019_Sep_23_1757,StressSession,3.2.3,59.99167315172541,
96,green,440,1.0,,,,,,0,95,95,95,,,,,,,,,,,,,,,,,,,,,fw2,002,2019_Sep_23_1757,StressSession,3.2.3,59.99167315172541,
97,green,440,1.0,,,,,,0,96,96,96,,,,,,,,,,,,,,,,,,,,,fw2,002,2019_Sep_23_1757,StressSession,3.2.3,59.99167315172541,
98,green,440,1.0,,,,,,0,97,97,97,,,,,,,,,,,,,,,,,,,,,fw2,002,2019_Sep_23_1757,StressSession,3.2.3,59.99167315172541,
99,green,440,1.0,,,,,,0,98,98,98,,,,,,,,,,,,,,,,,,,,,fw2,002,2019_Sep_23_1757,StressSession,3.2.3,59.99167315172541,
100,green,440,1.0,,,,,,0,99,99,99,,,,,,,,,,,,,,,,,,,,,fw2,002,2019_Sep_23_1757,StressSession,3.2.3,59.99167315172541,
101,green,440,1.0,,,,,,0,100,100,100,,,,,,,,,,,,,,,,,,,,,fw2,002,2019_Sep_23_1757,StressSession,3.2.3,59.99167315172541,
102,green,440,1.0,,,,,,0,101,101,101,,,,,,,,,,,,,,,,,,,,,fw2,002,2019_Sep_23_1757,StressSession,3.2.3,59.99167315172541,
103,green,440,1.0,,,,,,0,102,102,102,,,,,,,,,,,,,,,,,,,,,fw2,002,2019_Sep_23_1757,StressSession,3.2.3,59.99167315172541,
104,green,440,1.0,,,,,,0,103,103,103,,,,,,,,,,,,,,,,,,,,,fw2,002,2019_Sep_23_1757,StressSession,3.2.3,59.99167315172541,
105,green,440,1.0,,,,,,0,104,104,104,,,,,,,,,,,,,,,,,,,,,fw2,002,2019_Sep_23_1757,StressSession,3.2.3,59.99167315172541,
106,green,440,1.0,,,,,,0,105,105,105,,,,,,,,,,,,,,,,,,,,,fw2,002,2019_Sep_23_1757,StressSession,3.2.3,59.99167315172541,
107,green,440,1.0,,,,,,0,106,106,106,,,,,,,,,,,,,,,,,,,,,fw2,002,2019_Sep_23_1757,StressSession,3.2.3,59.99167315172541,
108,green,440,1.0,,,,,,0,107,107,107,,,,,,,,,,,,,,,,,,,,,fw2,002,2019_Sep_23_1757,StressSession,3.2.3,59.99167315172541,
109,green,440,1.0,,,,,,0,108,108,108,,,,,,,,,,,,,,,,,,,,,fw2,002,2019_Sep_23_1757,StressSession,3.2.3,59.99167315172541,
110,green,440,1.0,,,,,,0,109,109,109,,,,,,,,,,,,,,,,,,,,,fw2,002,2019_Sep_23_1757,StressSession,3.2.3,59.99167315172541,
111,green,440,1.0,,,,,,0,110,110,110,,,,,,,,,,,,,,,,,,,,,fw2,002,2019_Sep_23_1757,StressSession,3.2.3,59.99167315172541,
112,green,440,1.0,,,,,,0,111,111,111,,,,,,,,,,,,,,,,,,,,,fw2,002,2019_Sep_23_1757,StressSession,3.2.3,59.99167315172541,
113,green,440,1.0,,,,,,0,112,112,112,,,,,,,,,,,,,,,,,,,,,fw2,002,2019_Sep_23_1757,StressSession,3.2.3,59.99167315172541,
114,green,440,1.0,,,,,,0,113,113,113,,,,,,,,,,,,,,,,,,,,,fw2,002,2019_Sep_23_1757,StressSession,3.2.3,59.99167315172541,
115,green,440,1.0,,,,,,0,114,114,114,,,,,,,,,,,,,,,,,,,,,fw2,002,2019_Sep_23_1757,StressSession,3.2.3,59.99167315172541,
116,green,440,1.0,,,,,,0,115,115,115,,,,,,,,,,,,,,,,,,,,,fw2,002,2019_Sep_23_1757,StressSession,3.2.3,59.99167315172541,
117,green,440,1.0,,,,,,0,116,116,116,,,,,,,,,,,,,,,,,,,,,fw2,002,2019_Sep_23_1757,StressSession,3.2.3,59.99167315172541,
118,green,440,1.0,,,,,,0,117,117,117,,,,,,,,,,,,,,,,,,,,,fw2,002,2019_Sep_23_1757,StressSession,3.2.3,59.99167315172541,
119,green,440,1.0,,,,,,0,118,118,118,,,,,,,,,,,,,,,,,,,,,fw2,002,2019_Sep_23_1757,StressSession,3.2.3,59.99167315172541,
120,green,440,1.0,,,,,,0,119,119,119,,,,,,,,,,,,,,,,,,,,,fw2,002,2019_Sep_23_1757,StressSession,3.2.3,59.99167315172541,
121,green,440,1.0,,,,,,0,120,120,120,,,,,,,,,,,,,,,,,,,,,fw2,002,2019_Sep_23_1757,StressSession,3.2.3,59.99167315172541,
122,green,440,1.0,,,,,,0,121,121,121,,,,,,,,,,,,,,,,,,,,,fw2,002,2019_Sep_23_1757,StressSession,3.2.3,59.99167315172541,
123,green,440,1.0,,,,,,0,122,122,122,,,,,,,,,,,,,,,,,,,,,fw2,002,2019_Sep_23_1757,StressSession,3.2.3,59.99167315172541,
124,green,440,1.0,,,,,,0,123,123,123,,,,,,,,,,,,,,,,,,,,,fw2,002,2019_Sep_23_1757,StressSession,3.2.3,59.99167315172541,
125,green,440,1.0,,,,,,0,124,124,124,,,,,,,,,,,,,,,,,,,,,fw2,002,2019_Sep_23_1757,StressSession,3.2.3,59.99167315172541,
126,green,440,1.0,,,,,,0,125,125,125,,,,,,,,,,,,,,,,,,,,,fw2,002,2019_Sep_23_1757,StressSession,3.2.3,59.99167315172541,
127,green,440,1.0,,,,,,0,126,126,126,,,,,,,,,,,,,,,,,,,,,fw2,002,2019_Sep_23_1757,StressSession,3.2.3,59.99167315172541,
128,green,440,1.0,,,,,,0,127,127,127,,,,,,,,,,,,,,,,,,,,,fw2,002,2019_Sep_23_1757,StressSession,3.2.3,59.99167315172541,
129,green,440,1.0,,,,,,0,128,128,128,,,,,,,,,,,,,,,,,,,,,fw2,002,2019_Sep_23_1757,StressSession,3.2.3,59.99167315172541,
130,green,440,1.0,,,,,,0,129,129,129,,,,,,,,,,,,,,,,,,,,,fw2,002,2019_Sep_23_1757,StressSession,3.2.3,59.99167315172541,
131,green,440,1.0,,,,,,0,130,130,130,,,,,,,,,,,,,,,,,,,,,fw2,002,2019_Sep_23_1757,StressSession,3.2.3,59.99167315172541,
132,green,440,1.0,,,,,,0,131,131,131,,,,,,,,,,,,,,,,,,,,,fw2,002,2019_Sep_23_1757,StressSession,3.2.3,59.99167315172541,
133,green,440,1.0,,,,,,0,132,132,132,,,,,,,,,,,,,,,,,,,,,fw2,002,2019_Sep_23_1757,StressSession,3.2.3,59.99167315172541,
134,green,440,1.0,,,,,,0,133,133,133,,,,,,,,,,,,,,,,,,,,,fw2,002,2019_Sep_23_1757,StressSession,3.2.3,59.99167315172541,
135,green,440,1.0,,,,,,0,134,134,134,,,,,,,,,,,,,,,,,,,,,fw2,002,2019_Sep_23_1757,StressSession,3.2.3,59.99167315172541,
136,green,440,1.0,,,,,,0,135,135,135,,,,,,,,,,,,,,,,,,,,,fw2,002,2019_Sep_23_1757,StressSession,3.2.3,59.99167315172541,
137,green,440,1.0,,,,,,0,136,136,136,,,,,,,,,,,,,,,,,,,,,fw2,002,2019_Sep_23_1757,StressSession,3.2.3,59.99167315172541,
138,green,440,1.0,,,,,,0,137,137,137,,,,,,,,,,,,,,,,,,,,,fw2,002,2019_Sep_23_1757,StressSession,3.2.3,59.99167315172541,
139,green,440,1.0,,,,,,0,138,138,138,,,,,,,,,,,,,,,,,,,,,fw2,002,2019_Sep_23_1757,StressSession,3.2.3,59.99167315172541,
140,green,440,1.0,,,,,,0,139,139,139,,,,,,,,,,,,,,,,,,,,,fw2,002,2019_Sep_23_1757,StressSession,3.2.3,59.99167315172541,
141,green,440,1.0,,,,,,0,140,140,140,,,,,,,,,,,,,,,,,,,,,fw2,002,2019_Sep_23_1757,StressSession,3.2.3,59.99167315172541,
142,green,440,1.0,,,,,,0,141,141,141,,,,,,,,,,,,,,,,,,,,,fw2,002,2019_Sep_23_1757,StressSession,3.2.3,59.99167315172541,
143,green,440,1.0,,,,,,0,142,142,142,,,,,,,,,,,,,,,,,,,,,fw2,002,2019_Sep_23_1757,StressSession,3.2.3,59.99167315172541,
144,green,440,1.0,,,,,,0,143,143,143,,,,,,,,,,,,,,,,,,,,,fw2,002,2019_Sep_23_1757,StressSession,3.2.3,59.99167315172541,
145,green,440,1.0,,,,,,0,144,144,144,,,,,,,,,,,,,,,,,,,,,fw2,002,2019_Sep_23_1757,StressSession,3.2.3,59.99167315172541,
146,green,440,1.0,,,,,,0,145,145,145,,,,,,,,,,,,,,,,,,,,,fw2,002,2019_Sep_23_1757,StressSession,3.2.3,59.99167315172541,
147,green,440,1.0,,,,,,0,146,146,146,,,,,,,,,,,,,,,,,,,,,fw2,002,2019_Sep_23_1757,StressSession,3.2.3,59.99167315172541,
148,green,440,1.0,,,,,,0,147,147,147,,,,,,,,,,,,,,,,,,,,,fw2,002,2019_Sep_23_1757,StressSession,3.2.3,59.99167315172541,
149,green,440,1.0,,,,,,0,148,148,148,,,,,,,,,,,,,,,,,,,,,fw2,002,2019_Sep_23_1757,StressSession,3.2.3,59.99167315172541,
150,green,440,1.0,,,,,,0,149,149,149,,,,,,,,,,,,,,,,,,,,,fw2,002,2019_Sep_23_1757,StressSession,3.2.3,59.99167315172541,
151,green,440,1.0,,,,,,0,150,150,150,,,,,,,,,,,,,,,,,,,,,fw2,002,2019_Sep_23_1757,StressSession,3.2.3,59.99167315172541,
152,green,440,1.0,,,,,,0,151,151,151,,,,,,,,,,,,,,,,,,,,,fw2,002,2019_Sep_23_1757,StressSession,3.2.3,59.99167315172541,
153,green,440,1.0,,,,,,0,152,152,152,,,,,,,,,,,,,,,,,,,,,fw2,002,2019_Sep_23_1757,StressSession,3.2.3,59.99167315172541,
154,green,440,1.0,,,,,,0,153,153,153,,,,,,,,,,,,,,,,,,,,,fw2,002,2019_Sep_23_1757,StressSession,3.2.3,59.99167315172541,
155,green,440,1.0,,,,,,0,154,154,154,,,,,,,,,,,,,,,,,,,,,fw2,002,2019_Sep_23_1757,StressSession,3.2.3,59.99167315172541,
156,green,440,1.0,,,,,,0,155,155,155,,,,,,,,,,,,,,,,,,,,,fw2,002,2019_Sep_23_1757,StressSession,3.2.3,59.99167315172541,
157,green,440,1.0,,,,,,0,156,156,156,,,,,,,,,,,,,,,,,,,,,fw2,002,2019_Sep_23_1757,StressSession,3.2.3,59.99167315172541,
158,green,440,1.0,,,,,,0,157,157,157,,,,,,,,,,,,,,,,,,,,,fw2,002,2019_Sep_23_1757,StressSession,3.2.3,59.99167315172541,
159,green,440,1.0,,,,,,0,158,158,158,,,,,,,,,,,,,,,,,,,,,fw2,002,2019_Sep_23_1757,StressSession,3.2.3,59.99167315172541,
160,green,440,1.0,,,,,,0,159,159,159,,,,,,,,,,,,,,,,,,,,,fw2,002,2019_Sep_23_1757,StressSession,3.2.3,59.99167315172541,
161,green,440,1.0,,,,,,0,160,160,160,,,,,,,,,,,,,,,,,,,,,fw2,002,2019_Sep_23_1757,StressSession,3.2.3,59.99167315172541,
162,green,440,1.0,,,,,,0,161,161,161,,,,,,,,,,,,,,,,,,,,,fw2,002,2019_Sep_23_1757,StressSession,3.2.3,59.99167315172541,
163,green,440,1.0,,,,,,0,162,162,162,,,,,,,,,,,,,,,,,,,,,fw2,002,2019_Sep_23_1757,StressSession,3.2.3,59.99167315172541,
164,green,440,1.0,,,,,,0,163,163,163,,,,,,,,,,,,,,,,,,,,,fw2,002,2019_Sep_23_1757,StressSession,3.2.3,59.99167315172541,
165,green,440,1.0,,,,,,0,164,164,164,,,,,,,,,,,,,,,,,,,,,fw2,002,2019_Sep_23_1757,StressSession,3.2.3,59.99167315172541,
166,green,440,1.0,,,,,,0,165,165,165,,,,,,,,,,,,,,,,,,,,,fw2,002,2019_Sep_23_1757,StressSession,3.2.3,59.99167315172541,
167,green,440,1.0,,,,,,0,166,166,166,,,,,,,,,,,,,,,,,,,,,fw2,002,2019_Sep_23_1757,StressSession,3.2.3,59.99167315172541,
168,green,440,1.0,,,,,,0,167,167,167,,,,,,,,,,,,,,,,,,,,,fw2,002,2019_Sep_23_1757,StressSession,3.2.3,59.99167315172541,
169,green,440,1.0,,,,,,0,168,168,168,,,,,,,,,,,,,,,,,,,,,fw2,002,2019_Sep_23_1757,StressSession,3.2.3,59.99167315172541,
170,green,440,1.0,,,,,,0,169,169,169,,,,,,,,,,,,,,,,,,,,,fw2,002,2019_Sep_23_1757,StressSession,3.2.3,59.99167315172541,
171,green,440,1.0,,,,,,0,170,170,170,,,,,,,,,,,,,,,,,,,,,fw2,002,2019_Sep_23_1757,StressSession,3.2.3,59.99167315172541,
172,green,440,1.0,,,,,,0,171,171,171,,,,,,,,,,,,,,,,,,,,,fw2,002,2019_Sep_23_1757,StressSession,3.2.3,59.99167315172541,
173,green,440,1.0,,,,,,0,172,172,172,,,,,,,,,,,,,,,,,,,,,fw2,002,2019_Sep_23_1757,StressSession,3.2.3,59.99167315172541,
174,green,440,1.0,,,,,,0,173,173,173,,,,,,,,,,,,,,,,,,,,,fw2,002,2019_Sep_23_1757,StressSession,3.2.3,59.99167315172541,
175,green,440,1.0,,,,,,0,174,174,174,,,,,,,,,,,,,,,,,,,,,fw2,002,2019_Sep_23_1757,StressSession,3.2.3,59.99167315172541,
176,green,440,1.0,,,,,,0,175,175,175,,,,,,,,,,,,,,,,,,,,,fw2,002,2019_Sep_23_1757,StressSession,3.2.3,59.99167315172541,
177,green,440,1.0,,,,,,0,176,176,176,,,,,,,,,,,,,,,,,,,,,fw2,002,2019_Sep_23_1757,StressSession,3.2.3,59.99167315172541,
178,green,440,1.0,,,,,,0,177,177,177,,,,,,,,,,,,,,,,,,,,,fw2,002,2019_Sep_23_1757,StressSession,3.2.3,59.99167315172541,
179,green,440,1.0,,,,,,0,178,178,178,,,,,,,,,,,,,,,,,,,,,fw2,002,2019_Sep_23_1757,StressSession,3.2.3,59.99167315172541,
180,yellow,880,0.5,,,,,,0,179,179,179,,,,,,,,,,,,,,,,,,,,,fw2,002,2019_Sep_23_1757,StressSession,3.2.3,59.99167315172541,
181,yellow,880,0.5,,,,,,0,180,180,180,,,,,,,,,,,,,,,,,,,,,fw2,002,2019_Sep_23_1757,StressSession,3.2.3,59.99167315172541,
182,yellow,880,0.5,,,,,,0,181,181,181,,,,,,,,,,,,,,,,,,,,,fw2,002,2019_Sep_23_1757,StressSession,3.2.3,59.99167315172541,
183,yellow,880,0.5,,,,,,0,182,182,182,,,,,,,,,,,,,,,,,,,,,fw2,002,2019_Sep_23_1757,StressSession,3.2.3,59.99167315172541,
184,yellow,880,0.5,,,,,,0,183,183,183,,,,,,,,,,,,,,,,,,,,,fw2,002,2019_Sep_23_1757,StressSession,3.2.3,59.99167315172541,
185,yellow,880,0.5,,,,,,0,184,184,184,,,,,,,,,,,,,,,,,,,,,fw2,002,2019_Sep_23_1757,StressSession,3.2.3,59.99167315172541,
186,yellow,880,0.5,,,,,,0,185,185,185,,,,,,,,,,,,,,,,,,,,,fw2,002,2019_Sep_23_1757,StressSession,3.2.3,59.99167315172541,
187,yellow,880,0.5,,,,,,0,186,186,186,,,,,,,,,,,,,,,,,,,,,fw2,002,2019_Sep_23_1757,StressSession,3.2.3,59.99167315172541,
188,yellow,880,0.5,,,,,,0,187,187,187,,,,,,,,,,,,,,,,,,,,,fw2,002,2019_Sep_23_1757,StressSession,3.2.3,59.99167315172541,
189,yellow,880,0.5,,,,,,0,188,188,188,,,,,,,,,,,,,,,,,,,,,fw2,002,2019_Sep_23_1757,StressSession,3.2.3,59.99167315172541,
190,yellow,880,0.5,,,,,,0,189,189,189,,,,,,,,,,,,,,,,,,,,,fw2,002,2019_Sep_23_1757,StressSession,3.2.3,59.99167315172541,
191,yellow,880,0.5,,,,,,0,190,190,190,,,,,,,,,,,,,,,,,,,,,fw2,002,2019_Sep_23_1757,StressSession,3.2.3,59.99167315172541,
192,yellow,880,0.5,,,,,,0,191,191,191,,,,,,,,,,,,,,,,,,,,,fw2,002,2019_Sep_23_1757,StressSession,3.2.3,59.99167315172541,
193,yellow,880,0.5,,,,,,0,192,192,192,,,,,,,,,,,,,,,,,,,,,fw2,002,2019_Sep_23_1757,StressSession,3.2.3,59.99167315172541,
194,yellow,880,0.5,,,,,,0,193,193,193,,,,,,,,,,,,,,,,,,,,,fw2,002,2019_Sep_23_1757,StressSession,3.2.3,59.99167315172541,
195,yellow,880,0.5,,,,,,0,194,194,194,,,,,,,,,,,,,,,,,,,,,fw2,002,2019_Sep_23_1757,StressSession,3.2.3,59.99167315172541,
196,yellow,880,0.5,,,,,,0,195,195,195,,,,,,,,,,,,,,,,,,,,,fw2,002,2019_Sep_23_1757,StressSession,3.2.3,59.99167315172541,
197,yellow,880,0.5,,,,,,0,196,196,196,,,,,,,,,,,,,,,,,,,,,fw2,002,2019_Sep_23_1757,StressSession,3.2.3,59.99167315172541,
198,yellow,880,0.5,,,,,,0,197,197,197,,,,,,,,,,,,,,,,,,,,,fw2,002,2019_Sep_23_1757,StressSession,3.2.3,59.99167315172541,
199,yellow,880,0.5,,,,,,0,198,198,198,,,,,,,,,,,,,,,,,,,,,fw2,002,2019_Sep_23_1757,StressSession,3.2.3,59.99167315172541,
200,yellow,880,0.5,,,,,,0,199,199,199,,,,,,,,,,,,,,,,,,,,,fw2,002,2019_Sep_23_1757,StressSession,3.2.3,59.99167315172541,
201,yellow,880,0.5,,,,,,0,200,200,200,,,,,,,,,,,,,,,,,,,,,fw2,002,2019_Sep_23_1757,StressSession,3.2.3,59.99167315172541,
202,yellow,880,0.5,,,,,,0,201,201,201,,,,,,,,,,,,,,,,,,,,,fw2,002,2019_Sep_23_1757,StressSession,3.2.3,59.99167315172541,
203,yellow,880,0.5,,,,,,0,202,202,202,,,,,,,,,,,,,,,,,,,,,fw2,002,2019_Sep_23_1757,StressSession,3.2.3,59.99167315172541,
204,yellow,880,0.5,,,,,,0,203,203,203,,,,,,,,,,,,,,,,,,,,,fw2,002,2019_Sep_23_1757,StressSession,3.2.3,59.99167315172541,
205,yellow,880,0.5,,,,,,0,204,204,204,,,,,,,,,,,,,,,,,,,,,fw2,002,2019_Sep_23_1757,StressSession,3.2.3,59.99167315172541,
206,yellow,880,0.5,,,,,,0,205,205,205,,,,,,,,,,,,,,,,,,,,,fw2,002,2019_Sep_23_1757,StressSession,3.2.3,59.99167315172541,
207,yellow,880,0.5,,,,,,0,206,206,206,,,,,,,,,,,,,,,,,,,,,fw2,002,2019_Sep_23_1757,StressSession,3.2.3,59.99167315172541,
208,yellow,880,0.5,,,,,,0,207,207,207,,,,,,,,,,,,,,,,,,,,,fw2,002,2019_Sep_23_1757,StressSession,3.2.3,59.99167315172541,
209,yellow,880,0.5,,,,,,0,208,208,208,,,,,,,,,,,,,,,,,,,,,fw2,002,2019_Sep_23_1757,StressSession,3.2.3,59.99167315172541,
210,yellow,880,0.5,,,,,,0,209,209,209,,,,,,,,,,,,,,,,,,,,,fw2,002,2019_Sep_23_1757,StressSession,3.2.3,59.99167315172541,
211,yellow,880,0.5,,,,,,0,210,210,210,,,,,,,,,,,,,,,,,,,,,fw2,002,2019_Sep_23_1757,StressSession,3.2.3,59.99167315172541,
212,yellow,880,0.5,,,,,,0,211,211,211,,,,,,,,,,,,,,,,,,,,,fw2,002,2019_Sep_23_1757,StressSession,3.2.3,59.99167315172541,
213,yellow,880,0.5,,,,,,0,212,212,212,,,,,,,,,,,,,,,,,,,,,fw2,002,2019_Sep_23_1757,StressSession,3.2.3,59.99167315172541,
214,yellow,880,0.5,,,,,,0,213,213,213,,,,,,,,,,,,,,,,,,,,,fw2,002,2019_Sep_23_1757,StressSession,3.2.3,59.99167315172541,
215,yellow,880,0.5,,,,,,0,214,214,214,,,,,,,,,,,,,,,,,,,,,fw2,002,2019_Sep_23_1757,StressSession,3.2.3,59.99167315172541,
216,yellow,880,0.5,,,,,,0,215,215,215,,,,,,,,,,,,,,,,,,,,,fw2,002,2019_Sep_23_1757,StressSession,3.2.3,59.99167315172541,
217,yellow,880,0.5,,,,,,0,216,216,216,,,,,,,,,,,,,,,,,,,,,fw2,002,2019_Sep_23_1757,StressSession,3.2.3,59.99167315172541,
218,yellow,880,0.5,,,,,,0,217,217,217,,,,,,,,,,,,,,,,,,,,,fw2,002,2019_Sep_23_1757,StressSession,3.2.3,59.99167315172541,
219,yellow,880,0.5,,,,,,0,218,218,218,,,,,,,,,,,,,,,,,,,,,fw2,002,2019_Sep_23_1757,StressSession,3.2.3,59.99167315172541,
220,yellow,880,0.5,,,,,,0,219,219,219,,,,,,,,,,,,,,,,,,,,,fw2,002,2019_Sep_23_1757,StressSession,3.2.3,59.99167315172541,
221,yellow,880,0.5,,,,,,0,220,220,220,,,,,,,,,,,,,,,,,,,,,fw2,002,2019_Sep_23_1757,StressSession,3.2.3,59.99167315172541,
222,yellow,880,0.5,,,,,,0,221,221,221,,,,,,,,,,,,,,,,,,,,,fw2,002,2019_Sep_23_1757,StressSession,3.2.3,59.99167315172541,
223,yellow,880,0.5,,,,,,0,222,222,222,,,,,,,,,,,,,,,,,,,,,fw2,002,2019_Sep_23_1757,StressSession,3.2.3,59.99167315172541,
224,yellow,880,0.5,,,,,,0,223,223,223,,,,,,,,,,,,,,,,,,,,,fw2,002,2019_Sep_23_1757,StressSession,3.2.3,59.99167315172541,
225,yellow,880,0.5,,,,,,0,224,224,224,,,,,,,,,,,,,,,,,,,,,fw2,002,2019_Sep_23_1757,StressSession,3.2.3,59.99167315172541,
226,yellow,880,0.5,,,,,,0,225,225,225,,,,,,,,,,,,,,,,,,,,,fw2,002,2019_Sep_23_1757,StressSession,3.2.3,59.99167315172541,
227,yellow,880,0.5,,,,,,0,226,226,226,,,,,,,,,,,,,,,,,,,,,fw2,002,2019_Sep_23_1757,StressSession,3.2.3,59.99167315172541,
228,yellow,880,0.5,,,,,,0,227,227,227,,,,,,,,,,,,,,,,,,,,,fw2,002,2019_Sep_23_1757,StressSession,3.2.3,59.99167315172541,
229,yellow,880,0.5,,,,,,0,228,228,228,,,,,,,,,,,,,,,,,,,,,fw2,002,2019_Sep_23_1757,StressSession,3.2.3,59.99167315172541,
230,yellow,880,0.5,,,,,,0,229,229,229,,,,,,,,,,,,,,,,,,,,,fw2,002,2019_Sep_23_1757,StressSession,3.2.3,59.99167315172541,
231,yellow,880,0.5,,,,,,0,230,230,230,,,,,,,,,,,,,,,,,,,,,fw2,002,2019_Sep_23_1757,StressSession,3.2.3,59.99167315172541,
232,yellow,880,0.5,,,,,,0,231,231,231,,,,,,,,,,,,,,,,,,,,,fw2,002,2019_Sep_23_1757,StressSession,3.2.3,59.99167315172541,
233,yellow,880,0.5,,,,,,0,232,232,232,,,,,,,,,,,,,,,,,,,,,fw2,002,2019_Sep_23_1757,StressSession,3.2.3,59.99167315172541,
234,yellow,880,0.5,,,,,,0,233,233,233,,,,,,,,,,,,,,,,,,,,,fw2,002,2019_Sep_23_1757,StressSession,3.2.3,59.99167315172541,
235,yellow,880,0.5,,,,,,0,234,234,234,,,,,,,,,,,,,,,,,,,,,fw2,002,2019_Sep_23_1757,StressSession,3.2.3,59.99167315172541,
236,yellow,880,0.5,,,,,,0,235,235,235,,,,,,,,,,,,,,,,,,,,,fw2,002,2019_Sep_23_1757,StressSession,3.2.3,59.99167315172541,
237,yellow,880,0.5,,,,,,0,236,236,236,,,,,,,,,,,,,,,,,,,,,fw2,002,2019_Sep_23_1757,StressSession,3.2.3,59.99167315172541,
238,yellow,880,0.5,,,,,,0,237,237,237,,,,,,,,,,,,,,,,,,,,,fw2,002,2019_Sep_23_1757,StressSession,3.2.3,59.99167315172541,
239,yellow,880,0.5,,,,,,0,238,238,238,,,,,,,,,,,,,,,,,,,,,fw2,002,2019_Sep_23_1757,StressSession,3.2.3,59.99167315172541,
240,red,1760,0.5,,,,,,0,239,239,239,,,,,,,,,,,,,,,,,,,,,fw2,002,2019_Sep_23_1757,StressSession,3.2.3,59.99167315172541,
241,red,1760,0.5,,,,,,0,240,240,240,,,,,,,,,,,,,,,,,,,,,fw2,002,2019_Sep_23_1757,StressSession,3.2.3,59.99167315172541,
242,red,1760,0.5,,,,,,0,241,241,241,,,,,,,,,,,,,,,,,,,,,fw2,002,2019_Sep_23_1757,StressSession,3.2.3,59.99167315172541,
243,red,1760,0.5,,,,,,0,242,242,242,,,,,,,,,,,,,,,,,,,,,fw2,002,2019_Sep_23_1757,StressSession,3.2.3,59.99167315172541,
244,red,1760,0.5,,,,,,0,243,243,243,,,,,,,,,,,,,,,,,,,,,fw2,002,2019_Sep_23_1757,StressSession,3.2.3,59.99167315172541,
245,red,1760,0.5,,,,,,0,244,244,244,,,,,,,,,,,,,,,,,,,,,fw2,002,2019_Sep_23_1757,StressSession,3.2.3,59.99167315172541,
246,red,1760,0.5,,,,,,0,245,245,245,,,,,,,,,,,,,,,,,,,,,fw2,002,2019_Sep_23_1757,StressSession,3.2.3,59.99167315172541,
247,red,1760,0.5,,,,,,0,246,246,246,,,,,,,,,,,,,,,,,,,,,fw2,002,2019_Sep_23_1757,StressSession,3.2.3,59.99167315172541,
248,red,1760,0.5,,,,,,0,247,247,247,,,,,,,,,,,,,,,,,,,,,fw2,002,2019_Sep_23_1757,StressSession,3.2.3,59.99167315172541,
249,red,1760,0.5,,,,,,0,248,248,248,,,,,,,,,,,,,,,,,,,,,fw2,002,2019_Sep_23_1757,StressSession,3.2.3,59.99167315172541,
250,red,1760,0.5,,,,,,0,249,249,249,,,,,,,,,,,,,,,,,,,,,fw2,002,2019_Sep_23_1757,StressSession,3.2.3,59.99167315172541,
251,red,1760,0.5,,,,,,0,250,250,250,,,,,,,,,,,,,,,,,,,,,fw2,002,2019_Sep_23_1757,StressSession,3.2.3,59.99167315172541,
252,red,1760,0.5,,,,,,0,251,251,251,,,,,,,,,,,,,,,,,,,,,fw2,002,2019_Sep_23_1757,StressSession,3.2.3,59.99167315172541,
253,red,1760,0.5,,,,,,0,252,252,252,,,,,,,,,,,,,,,,,,,,,fw2,002,2019_Sep_23_1757,StressSession,3.2.3,59.99167315172541,
254,red,1760,0.5,,,,,,0,253,253,253,,,,,,,,,,,,,,,,,,,,,fw2,002,2019_Sep_23_1757,StressSession,3.2.3,59.99167315172541,
255,red,1760,0.5,,,,,,0,254,254,254,,,,,,,,,,,,,,,,,,,,,fw2,002,2019_Sep_23_1757,StressSession,3.2.3,59.99167315172541,
256,red,1760,0.5,,,,,,0,255,255,255,,,,,,,,,,,,,,,,,,,,,fw2,002,2019_Sep_23_1757,StressSession,3.2.3,59.99167315172541,
257,red,1760,0.5,,,,,,0,256,256,256,,,,,,,,,,,,,,,,,,,,,fw2,002,2019_Sep_23_1757,StressSession,3.2.3,59.99167315172541,
258,red,1760,0.5,,,,,,0,257,257,257,,,,,,,,,,,,,,,,,,,,,fw2,002,2019_Sep_23_1757,StressSession,3.2.3,59.99167315172541,
259,red,1760,0.5,,,,,,0,258,258,258,,,,,,,,,,,,,,,,,,,,,fw2,002,2019_Sep_23_1757,StressSession,3.2.3,59.99167315172541,
260,red,1760,0.5,,,,,,0,259,259,259,,,,,,,,,,,,,,,,,,,,,fw2,002,2019_Sep_23_1757,StressSession,3.2.3,59.99167315172541,
261,red,1760,0.5,,,,,,0,260,260,260,,,,,,,,,,,,,,,,,,,,,fw2,002,2019_Sep_23_1757,StressSession,3.2.3,59.99167315172541,
262,red,1760,0.5,,,,,,0,261,261,261,,,,,,,,,,,,,,,,,,,,,fw2,002,2019_Sep_23_1757,StressSession,3.2.3,59.99167315172541,
263,red,1760,0.5,,,,,,0,262,262,262,,,,,,,,,,,,,,,,,,,,,fw2,002,2019_Sep_23_1757,StressSession,3.2.3,59.99167315172541,
264,red,1760,0.5,,,,,,0,263,263,263,,,,,,,,,,,,,,,,,,,,,fw2,002,2019_Sep_23_1757,StressSession,3.2.3,59.99167315172541,
265,red,1760,0.5,,,,,,0,264,264,264,,,,,,,,,,,,,,,,,,,,,fw2,002,2019_Sep_23_1757,StressSession,3.2.3,59.99167315172541,
266,red,1760,0.5,,,,,,0,265,265,265,,,,,,,,,,,,,,,,,,,,,fw2,002,2019_Sep_23_1757,StressSession,3.2.3,59.99167315172541,
267,red,1760,0.5,,,,,,0,266,266,266,,,,,,,,,,,,,,,,,,,,,fw2,002,2019_Sep_23_1757,StressSession,3.2.3,59.99167315172541,
268,red,1760,0.5,,,,,,0,267,267,267,,,,,,,,,,,,,,,,,,,,,fw2,002,2019_Sep_23_1757,StressSession,3.2.3,59.99167315172541,
269,red,1760,0.5,,,,,,0,268,268,268,,,,,,,,,,,,,,,,,,,,,fw2,002,2019_Sep_23_1757,StressSession,3.2.3,59.99167315172541,
270,red,1760,0.5,,,,,,0,269,269,269,,,,,,,,,,,,,,,,,,,,,fw2,002,2019_Sep_23_1757,StressSession,3.2.3,59.99167315172541,
271,red,1760,0.5,,,,,,0,270,270,270,,,,,,,,,,,,,,,,,,,,,fw2,002,2019_Sep_23_1757,StressSession,3.2.3,59.99167315172541,
272,red,1760,0.5,,,,,,0,271,271,271,,,,,,,,,,,,,,,,,,,,,fw2,002,2019_Sep_23_1757,StressSession,3.2.3,59.99167315172541,
273,red,1760,0.5,,,,,,0,272,272,272,,,,,,,,,,,,,,,,,,,,,fw2,002,2019_Sep_23_1757,StressSession,3.2.3,59.99167315172541,
274,red,1760,0.5,,,,,,0,273,273,273,,,,,,,,,,,,,,,,,,,,,fw2,002,2019_Sep_23_1757,StressSession,3.2.3,59.99167315172541,
275,red,1760,0.5,,,,,,0,274,274,274,,,,,,,,,,,,,,,,,,,,,fw2,002,2019_Sep_23_1757,StressSession,3.2.3,59.99167315172541,
276,red,1760,0.5,,,,,,0,275,275,275,,,,,,,,,,,,,,,,,,,,,fw2,002,2019_Sep_23_1757,StressSession,3.2.3,59.99167315172541,
277,red,1760,0.5,,,,,,0,276,276,276,,,,,,,,,,,,,,,,,,,,,fw2,002,2019_Sep_23_1757,StressSession,3.2.3,59.99167315172541,
278,red,1760,0.5,,,,,,0,277,277,277,,,,,,,,,,,,,,,,,,,,,fw2,002,2019_Sep_23_1757,StressSession,3.2.3,59.99167315172541,
279,red,1760,0.5,,,,,,0,278,278,278,,,,,,,,,,,,,,,,,,,,,fw2,002,2019_Sep_23_1757,StressSession,3.2.3,59.99167315172541,
280,red,1760,0.5,,,,,,0,279,279,279,,,,,,,,,,,,,,,,,,,,,fw2,002,2019_Sep_23_1757,StressSession,3.2.3,59.99167315172541,
281,red,1760,0.5,,,,,,0,280,280,280,,,,,,,,,,,,,,,,,,,,,fw2,002,2019_Sep_23_1757,StressSession,3.2.3,59.99167315172541,
282,red,1760,0.5,,,,,,0,281,281,281,,,,,,,,,,,,,,,,,,,,,fw2,002,2019_Sep_23_1757,StressSession,3.2.3,59.99167315172541,
283,red,1760,0.5,,,,,,0,282,282,282,,,,,,,,,,,,,,,,,,,,,fw2,002,2019_Sep_23_1757,StressSession,3.2.3,59.99167315172541,
284,red,1760,0.5,,,,,,0,283,283,283,,,,,,,,,,,,,,,,,,,,,fw2,002,2019_Sep_23_1757,StressSession,3.2.3,59.99167315172541,
285,red,1760,0.5,,,,,,0,284,284,284,,,,,,,,,,,,,,,,,,,,,fw2,002,2019_Sep_23_1757,StressSession,3.2.3,59.99167315172541,
286,red,1760,0.5,,,,,,0,285,285,285,,,,,,,,,,,,,,,,,,,,,fw2,002,2019_Sep_23_1757,StressSession,3.2.3,59.99167315172541,
287,red,1760,0.5,,,,,,0,286,286,286,,,,,,,,,,,,,,,,,,,,,fw2,002,2019_Sep_23_1757,StressSession,3.2.3,59.99167315172541,
288,red,1760,0.5,,,,,,0,287,287,287,,,,,,,,,,,,,,,,,,,,,fw2,002,2019_Sep_23_1757,StressSession,3.2.3,59.99167315172541,
289,red,1760,0.5,,,,,,0,288,288,288,,,,,,,,,,,,,,,,,,,,,fw2,002,2019_Sep_23_1757,StressSession,3.2.3,59.99167315172541,
290,red,1760,0.5,,,,,,0,289,289,289,,,,,,,,,,,,,,,,,,,,,fw2,002,2019_Sep_23_1757,StressSession,3.2.3,59.99167315172541,
291,red,1760,0.5,,,,,,0,290,290,290,,,,,,,,,,,,,,,,,,,,,fw2,002,2019_Sep_23_1757,StressSession,3.2.3,59.99167315172541,
292,red,1760,0.5,,,,,,0,291,291,291,,,,,,,,,,,,,,,,,,,,,fw2,002,2019_Sep_23_1757,StressSession,3.2.3,59.99167315172541,
293,red,1760,0.5,,,,,,0,292,292,292,,,,,,,,,,,,,,,,,,,,,fw2,002,2019_Sep_23_1757,StressSession,3.2.3,59.99167315172541,
294,red,1760,0.5,,,,,,0,293,293,293,,,,,,,,,,,,,,,,,,,,,fw2,002,2019_Sep_23_1757,StressSession,3.2.3,59.99167315172541,
295,red,1760,0.5,,,,,,0,294,294,294,,,,,,,,,,,,,,,,,,,,,fw2,002,2019_Sep_23_1757,StressSession,3.2.3,59.99167315172541,
296,red,1760,0.5,,,,,,0,295,295,295,,,,,,,,,,,,,,,,,,,,,fw2,002,2019_Sep_23_1757,StressSession,3.2.3,59.99167315172541,
297,red,1760,0.5,,,,,,0,296,296,296,,,,,,,,,,,,,,,,,,,,,fw2,002,2019_Sep_23_1757,StressSession,3.2.3,59.99167315172541,
298,red,1760,0.5,,,,,,0,297,297,297,,,,,,,,,,,,,,,,,,,,,fw2,002,2019_Sep_23_1757,StressSession,3.2.3,59.99167315172541,
299,red,1760,0.5,,,,,,0,298,298,298,,,,,,,,,,,,,,,,,,,,,fw2,002,2019_Sep_23_1757,StressSession,3.2.3,59.99167315172541,
300,red,1760,0.5,,,,,,0,299,299,299,,,,,,,,,,,,,,,,,,,,,fw2,002,2019_Sep_23_1757,StressSession,3.2.3,59.99167315172541,
,,,,,,,,,,,,,,,,,,,2019-09-23_18:04:06,7,27.403,,,,,,,,,,,,fw2,002,2019_Sep_23_1757,StressSession,3.2.3,59.99167315172541,
,,,,,,,,,,,,,,,,,,,,,,9,10.193,,,,,,,,,,fw2,002,2019_Sep_23_1757,StressSession,3.2.3,59.99167315172541,
,,,,red,brown,brown,red,left,,,,,0,0,0,117,,,,,,,,2019-09-23_18:07:43,right,1.0552301999996416,643.7284302000189,None,,,,,fw2,002,2019_Sep_23_1757,StressSession,3.2.3,59.99167315172541,
,,,,red,brown,red,brown,right,,,,,0,1,1,7,,,,,,,,,left,0.9499752999981865,645.3218200000119,None,,,,,fw2,002,2019_Sep_23_1757,StressSession,3.2.3,59.99167315172541,
,,,,magenta,blue,magenta,blue,right,,,,,0,2,2,38,,,,,,,,,left,1.1648050000076182,646.8267395000148,None,,,,,fw2,002,2019_Sep_23_1757,StressSession,3.2.3,59.99167315172541,
,,,,purple,brown,purple,brown,right,,,,,0,3,3,70,,,,,,,,,right,1.9203195000009146,648.5514967000054,None,,,,,fw2,002,2019_Sep_23_1757,StressSession,3.2.3,59.99167315172541,
,,,,purple,brown,brown,purple,left,,,,,0,4,4,180,,,,,,,,,right,1.641320700000506,651.006051400007,None,,,,,fw2,002,2019_Sep_23_1757,StressSession,3.2.3,59.99167315172541,
,,,,black,white,white,black,left,,,,,0,5,5,219,,,,,,,,,left,1.826660000020638,653.2049237000174,None,,,,,fw2,002,2019_Sep_23_1757,StressSession,3.2.3,59.99167315172541,
,,,,black,red,red,black,left,,,,,0,6,6,210,,,,,,,,,left,2.1342017000133637,655.5612525000179,None,,,,,fw2,002,2019_Sep_23_1757,StressSession,3.2.3,59.99167315172541,
,,,,purple,cyan,cyan,purple,left,,,,,0,7,7,187,,,,,,,,,left,1.2233377000084147,658.2481778000074,None,,,,,fw2,002,2019_Sep_23_1757,StressSession,3.2.3,59.99167315172541,
,,,,green,purple,green,purple,right,,,,,0,8,8,24,,,,,,,,,right,1.3795587999920826,660.020597499999,None,,,,,fw2,002,2019_Sep_23_1757,StressSession,3.2.3,59.99167315172541,
,,,,white,red,white,red,right,,,,,0,9,9,91,,,,,,,,,right,1.0151784000045154,661.94448190002,None,,,,,fw2,002,2019_Sep_23_1757,StressSession,3.2.3,59.99167315172541,
,,,,blue,brown,brown,blue,left,,,,,0,10,10,126,,,,,,,,,left,2.1568675999878906,663.4985744000005,None,,,,,fw2,002,2019_Sep_23_1757,StressSession,3.2.3,59.99167315172541,
,,,,purple,red,purple,red,right,,,,,0,11,11,73,,,,,,,,,right,1.7063194999936968,666.2052907000179,None,,,,,fw2,002,2019_Sep_23_1757,StressSession,3.2.3,59.99167315172541,
,,,,magenta,orange,orange,magenta,left,,,,,0,12,12,142,,,,,,,,,left,1.827038099989295,668.4603583000135,None,,,,,fw2,002,2019_Sep_23_1757,StressSession,3.2.3,59.99167315172541,
,,,,black,blue,black,blue,right,,,,,0,13,13,101,,,,,,,,,right,1.4976884000061546,670.8378182000015,None,,,,,fw2,002,2019_Sep_23_1757,StressSession,3.2.3,59.99167315172541,
,,,,yellow,brown,brown,yellow,left,,,,,0,14,14,162,,,,,,,,,left,1.1692670999909751,672.8947846000083,None,,,,,fw2,002,2019_Sep_23_1757,StressSession,3.2.3,59.99167315172541,
,,,,yellow,white,yellow,white,right,,,,,0,15,15,53,,,,,,,,,right,1.2156304999953136,674.5997094000049,None,,,,,fw2,002,2019_Sep_23_1757,StressSession,3.2.3,59.99167315172541,
,,,,orange,cyan,cyan,orange,left,,,,,0,16,16,178,,,,,,,,,left,1.2680782000243198,676.3555454000016,None,,,,,fw2,002,2019_Sep_23_1757,StressSession,3.2.3,59.99167315172541,
,,,,white,purple,white,purple,right,,,,,0,17,17,98,,,,,,,,,right,1.2676762999908533,678.1717153000063,None,,,,,fw2,002,2019_Sep_23_1757,StressSession,3.2.3,59.99167315172541,
,,,,brown,black,black,brown,left,,,,,0,18,18,191,,,,,,,,,left,1.3540535000211094,679.997320800001,None,,,,,fw2,002,2019_Sep_23_1757,StressSession,3.2.3,59.99167315172541,
,,,,black,purple,black,purple,right,,,,,0,19,19,107,,,,,,,,,right,1.2122164999891538,681.9000392000016,None,,,,,fw2,002,2019_Sep_23_1757,StressSession,3.2.3,59.99167315172541,
,,,,cyan,yellow,yellow,cyan,left,,,,,0,20,20,150,,,,,,,,,left,1.113290400011465,683.6541313000198,None,,,,,fw2,002,2019_Sep_23_1757,StressSession,3.2.3,59.99167315172541,
,,,,blue,yellow,yellow,blue,left,,,,,0,21,21,123,,,,,,,,,left,1.0317516999784857,685.3123892000003,None,,,,,fw2,002,2019_Sep_23_1757,StressSession,3.2.3,59.99167315172541,
,,,,white,brown,white,brown,right,,,,,0,22,22,99,,,,,,,,,right,1.097226000012597,686.8861374999979,None,,,,,fw2,002,2019_Sep_23_1757,StressSession,3.2.3,59.99167315172541,
,,,,white,orange,white,orange,right,,,,,0,23,23,97,,,,,,,,,right,1.667133599985391,688.5256371000141,None,,,,,fw2,002,2019_Sep_23_1757,StressSession,3.2.3,59.99167315172541,
,,,,cyan,magenta,cyan,magenta,right,,,,,0,24,24,49,,,,,,,,,left,1.3567592999897897,690.7387255000067,None,,,,,fw2,002,2019_Sep_23_1757,StressSession,3.2.3,59.99167315172541,
,,,,yellow,cyan,yellow,cyan,right,,,,,0,25,25,59,,,,,,,,,right,2.1887114999990445,692.6358727000188,None,,,,,fw2,002,2019_Sep_23_1757,StressSession,3.2.3,59.99167315172541,
,,,,yellow,white,white,yellow,left,,,,,0,26,26,163,,,,,,,,,left,1.1178094999922905,695.3618031000078,None,,,,,fw2,002,2019_Sep_23_1757,StressSession,3.2.3,59.99167315172541,
,,,,yellow,purple,purple,yellow,left,,,,,0,27,27,161,,,,,,,,,left,1.2972994000010658,697.0223599000019,None,,,,,fw2,002,2019_Sep_23_1757,StressSession,3.2.3,59.99167315172541,
,,,,yellow,black,black,yellow,left,,,,,0,28,28,164,,,,,,,,,left,0.9839092000038363,698.8563371000055,None,,,,,fw2,002,2019_Sep_23_1757,StressSession,3.2.3,59.99167315172541,
,,,,brown,white,white,brown,left,,,,,0,29,29,190,,,,,,,,,left,1.1208403000200633,700.3827964000229,None,,,,,fw2,002,2019_Sep_23_1757,StressSession,3.2.3,59.99167315172541,
,,,,red,magenta,red,magenta,right,,,,,0,30,30,2,,,,,,,,,right,1.1370047999953385,702.0466470000101,None,,,,,fw2,002,2019_Sep_23_1757,StressSession,3.2.3,59.99167315172541,
,,,,magenta,brown,brown,magenta,left,,,,,0,31,31,144,,,,,,,,,left,1.061278500012122,703.7301538000174,None,,,,,fw2,002,2019_Sep_23_1757,StressSession,3.2.3,59.99167315172541,
,,,,blue,black,blue,black,right,,,,,0,32,32,18,,,,,,,,,right,1.7082313999999315,705.3316330000234,None,,,,,fw2,002,2019_Sep_23_1757,StressSession,3.2.3,59.99167315172541,
,,,,green,brown,green,brown,right,,,,,0,33,33,25,,,,,,,,,right,1.2918177999963518,707.5804962000111,None,,,,,fw2,002,2019_Sep_23_1757,StressSession,3.2.3,59.99167315172541,
,,,,red,black,red,black,right,,,,,0,34,34,9,,,,,,,,,right,1.0407049999921583,709.4154400000116,None,,,,,fw2,002,2019_Sep_23_1757,StressSession,3.2.3,59.99167315172541,
,,,,cyan,white,cyan,white,right,,,,,0,35,35,44,,,,,,,,,right,0.8421699999889825,710.9975135000132,None,,,,,fw2,002,2019_Sep_23_1757,StressSession,3.2.3,59.99167315172541,
,,,,white,blue,white,blue,right,,,,,0,36,36,92,,,,,,,,,right,0.9806392999889795,712.3788789000246,None,,,,,fw2,002,2019_Sep_23_1757,StressSession,3.2.3,59.99167315172541,
,,,,white,purple,purple,white,left,,,,,0,37,37,208,,,,,,,,,left,0.9532356999989133,713.9102289000002,None,,,,,fw2,002,2019_Sep_23_1757,StressSession,3.2.3,59.99167315172541,
,,,,green,cyan,cyan,green,left,,,,,0,38,38,131,,,,,,,,,left,1.4034671999979764,715.4121876000136,None,,,,,fw2,002,2019_Sep_23_1757,StressSession,3.2.3,59.99167315172541,
,,,,cyan,brown,cyan,brown,right,,,,,0,39,39,43,,,,,,,,,right,1.0256807999976445,717.3577439000073,None,,,,,fw2,002,2019_Sep_23_1757,StressSession,3.2.3,59.99167315172541,
,,,,yellow,red,red,yellow,left,,,,,0,40,40,165,,,,,,,,,left,1.0931438000116032,718.9302469000104,None,,,,,fw2,002,2019_Sep_23_1757,StressSession,3.2.3,59.99167315172541,
,,,,magenta,green,green,magenta,left,,,,,0,41,41,149,,,,,,,,,left,1.3713778000092134,720.5808070000203,None,,,,,fw2,002,2019_Sep_23_1757,StressSession,3.2.3,59.99167315172541,
,,,,orange,magenta,orange,magenta,right,,,,,0,42,42,67,,,,,,,,,right,0.9632742000103462,722.4922170000209,None,,,,,fw2,002,2019_Sep_23_1757,StressSession,3.2.3,59.99167315172541,
,,,,red,black,black,red,left,,,,,0,43,43,119,,,,,,,,,right,0.8394269999989774,724.0081924000115,None,,,,,fw2,002,2019_Sep_23_1757,StressSession,3.2.3,59.99167315172541,
,,,,brown,white,brown,white,right,,,,,0,44,44,80,,,,,,,,,right,1.6962462000083178,725.3991676000005,None,,,,,fw2,002,2019_Sep_23_1757,StressSession,3.2.3,59.99167315172541,
,,,,cyan,magenta,magenta,cyan,left,,,,,0,45,45,159,,,,,,,,,left,1.9277181000215933,727.6480477000005,None,,,,,fw2,002,2019_Sep_23_1757,StressSession,3.2.3,59.99167315172541,
,,,,brown,purple,purple,brown,left,,,,,0,46,46,199,,,,,,,,,left,1.3051794999919366,730.1277780000237,None,,,,,fw2,002,2019_Sep_23_1757,StressSession,3.2.3,59.99167315172541,
,,,,purple,magenta,magenta,purple,left,,,,,0,47,47,186,,,,,,,,,left,1.2530980999872554,731.9792252000188,None,,,,,fw2,002,2019_Sep_23_1757,StressSession,3.2.3,59.99167315172541,
,,,,magenta,brown,magenta,brown,right,,,,,0,48,48,34,,,,,,,,,right,1.9959767000109423,733.7716506000143,None,,,,,fw2,002,2019_Sep_23_1757,StressSession,3.2.3,59.99167315172541,
,,,,purple,black,purple,black,right,,,,,0,49,49,72,,,,,,,,,right,1.803111799992621,736.3086232000205,None,,,,,fw2,002,2019_Sep_23_1757,StressSession,3.2.3,59.99167315172541,
,,,,yellow,black,yellow,black,right,,,,,0,50,50,54,,,,,,,,,right,1.2747036000073422,738.6530885000248,None,,,,,fw2,002,2019_Sep_23_1757,StressSession,3.2.3,59.99167315172541,
,,,,red,cyan,red,cyan,right,,,,,0,51,51,3,,,,,,,,,right,1.0079275000025518,740.4727629000263,None,,,,,fw2,002,2019_Sep_23_1757,StressSession,3.2.3,59.99167315172541,
,,,,orange,blue,blue,orange,left,,,,,0,52,52,175,,,,,,,,,left,0.8132240999839269,742.0263846000016,None,,,,,fw2,002,2019_Sep_23_1757,StressSession,3.2.3,59.99167315172541,
,,,,purple,white,purple,white,right,,,,,0,53,53,71,,,,,,,,,right,1.1171200999815483,743.3793087000086,None,,,,,fw2,002,2019_Sep_23_1757,StressSession,3.2.3,59.99167315172541,
,,,,yellow,green,green,yellow,left,,,,,0,54,54,167,,,,,,,,,right,1.0565549999882933,745.0397087000019,None,,,,,fw2,002,2019_Sep_23_1757,StressSession,3.2.3,59.99167315172541,
,,,,orange,green,green,orange,left,,,,,0,55,55,176,,,,,,,,,left,1.81523219999508,746.6402869000158,None,,,,,fw2,002,2019_Sep_23_1757,StressSession,3.2.3,59.99167315172541,
,,,,purple,yellow,purple,yellow,right,,,,,0,56,56,78,,,,,,,,,right,1.1200368999852799,749.0082583000185,None,,,,,fw2,002,2019_Sep_23_1757,StressSession,3.2.3,59.99167315172541,
,,,,black,brown,black,brown,right,,,,,0,57,57,108,,,,,,,,,right,1.401143499999307,750.6703475000104,None,,,,,fw2,002,2019_Sep_23_1757,StressSession,3.2.3,59.99167315172541,
,,,,magenta,yellow,magenta,yellow,right,,,,,0,58,58,31,,,,,,,,,right,3.421012200007681,752.6265047000197,None,,,,,fw2,002,2019_Sep_23_1757,StressSession,3.2.3,59.99167315172541,
,,,,brown,orange,orange,brown,left,,,,,0,59,59,198,,,,,,,,,left,2.231921099999454,756.6077568000183,None,,,,,fw2,002,2019_Sep_23_1757,StressSession,3.2.3,59.99167315172541,
,,,,blue,cyan,cyan,blue,left,,,,,0,60,60,122,,,,,,,,,left,1.5763970999978483,759.383745900006,None,,,,,fw2,002,2019_Sep_23_1757,StressSession,3.2.3,59.99167315172541,
,,,,orange,green,orange,green,right,,,,,0,61,61,66,,,,,,,,,right,1.3990968999860343,761.5045614000119,None,,,,,fw2,002,2019_Sep_23_1757,StressSession,3.2.3,59.99167315172541,
,,,,white,brown,brown,white,left,,,,,0,62,62,209,,,,,,,,,left,1.093778199981898,763.450055400026,None,,,,,fw2,002,2019_Sep_23_1757,StressSession,3.2.3,59.99167315172541,
,,,,green,blue,blue,green,left,,,,,0,63,63,139,,,,,,,,,left,1.1554471999988891,765.084697000013,None,,,,,fw2,002,2019_Sep_23_1757,StressSession,3.2.3,59.99167315172541,
,,,,green,yellow,yellow,green,left,,,,,0,64,64,132,,,,,,,,,left,0.968001400004141,766.7754837000102,None,,,,,fw2,002,2019_Sep_23_1757,StressSession,3.2.3,59.99167315172541,
,,,,black,blue,blue,black,left,,,,,0,65,65,211,,,,,,,,,left,1.42770629998995,768.2839891000185,None,,,,,fw2,002,2019_Sep_23_1757,StressSession,3.2.3,59.99167315172541,
,,,,black,orange,orange,black,left,,,,,0,66,66,216,,,,,,,,,left,1.8735996000177693,770.2540251000028,None,,,,,fw2,002,2019_Sep_23_1757,StressSession,3.2.3,59.99167315172541,
,,,,magenta,white,magenta,white,right,,,,,0,67,67,35,,,,,,,,,right,1.817338099994231,772.6861307000217,None,,,,,fw2,002,2019_Sep_23_1757,StressSession,3.2.3,59.99167315172541,
,,,,white,green,green,white,left,,,,,0,68,68,203,,,,,,,,,left,1.213451800023904,775.0428269999975,None,,,,,fw2,002,2019_Sep_23_1757,StressSession,3.2.3,59.99167315172541,
,,,,yellow,magenta,yellow,magenta,right,,,,,0,69,69,58,,,,,,,,,right,1.2600347000116017,776.8036481000017,None,,,,,fw2,002,2019_Sep_23_1757,StressSession,3.2.3,59.99167315172541,
,,,,black,green,black,green,right,,,,,0,70,70,102,,,,,,,,,right,1.2565174000046682,778.6155596000026,None,,,,,fw2,002,2019_Sep_23_1757,StressSession,3.2.3,59.99167315172541,
,,,,magenta,green,magenta,green,right,,,,,0,71,71,39,,,,,,,,,right,1.0757385999895632,780.412347800011,None,,,,,fw2,002,2019_Sep_23_1757,StressSession,3.2.3,59.99167315172541,
,,,,black,cyan,black,cyan,right,,,,,0,72,72,104,,,,,,,,,right,1.2980902999988757,782.0295853000134,None,,,,,fw2,002,2019_Sep_23_1757,StressSession,3.2.3,59.99167315172541,
,,,,cyan,black,black,cyan,left,,,,,0,73,73,155,,,,,,,,,left,1.148856199986767,783.8666500000108,None,,,,,fw2,002,2019_Sep_23_1757,StressSession,3.2.3,59.99167315172541,
,,,,magenta,black,magenta,black,right,,,,,0,74,74,36,,,,,,,,,right,1.2912695000122767,785.5725213999976,None,,,,,fw2,002,2019_Sep_23_1757,StressSession,3.2.3,59.99167315172541,
,,,,red,blue,red,blue,right,,,,,0,75,75,0,,,,,,,,,right,1.0852514999860432,787.4102300000086,None,,,,,fw2,002,2019_Sep_23_1757,StressSession,3.2.3,59.99167315172541,
,,,,orange,brown,brown,orange,left,,,,,0,76,76,171,,,,,,,,,right,1.1991157000011299,789.0486701000191,None,,,,,fw2,002,2019_Sep_23_1757,StressSession,3.2.3,59.99167315172541,
,,,,black,yellow,black,yellow,right,,,,,0,77,77,105,,,,,,,,,right,4.038065900007496,790.7937282000203,None,,,,,fw2,002,2019_Sep_23_1757,StressSession,3.2.3,59.99167315172541,
,,,,white,orange,orange,white,left,,,,,0,78,78,207,,,,,,,,,left,1.238425899995491,795.3771765000129,None,,,,,fw2,002,2019_Sep_23_1757,StressSession,3.2.3,59.99167315172541,
,,,,purple,blue,blue,purple,left,,,,,0,79,79,184,,,,,,,,,left,1.903691899991827,797.1600584000116,None,,,,,fw2,002,2019_Sep_23_1757,StressSession,3.2.3,59.99167315172541,
,,,,blue,purple,purple,blue,left,,,,,0,80,80,125,,,,,,,,,left,0.9764041000162251,799.6077145000163,None,,,,,fw2,002,2019_Sep_23_1757,StressSession,3.2.3,59.99167315172541,
,,,,blue,green,blue,green,right,,,,,0,81,81,10,,,,,,,,,right,0.9101522999990266,801.1133991000243,None,,,,,fw2,002,2019_Sep_23_1757,StressSession,3.2.3,59.99167315172541,
,,,,brown,cyan,cyan,brown,left,,,,,0,82,82,196,,,,,,,,,left,0.9897467999835499,802.5780807000119,None,,,,,fw2,002,2019_Sep_23_1757,StressSession,3.2.3,59.99167315172541,
,,,,orange,yellow,yellow,orange,left,,,,,0,83,83,179,,,,,,,,,left,1.1218416999909095,804.1103887000063,None,,,,,fw2,002,2019_Sep_23_1757,StressSession,3.2.3,59.99167315172541,
,,,,purple,black,black,purple,left,,,,,0,84,84,182,,,,,,,,,left,1.0795060000091325,805.7760855000233,None,,,,,fw2,002,2019_Sep_23_1757,StressSession,3.2.3,59.99167315172541,
,,,,yellow,orange,yellow,orange,right,,,,,0,85,85,50,,,,,,,,,right,1.7327639999857638,807.4110797000176,None,,,,,fw2,002,2019_Sep_23_1757,StressSession,3.2.3,59.99167315172541,
,,,,cyan,orange,cyan,orange,right,,,,,0,86,86,41,,,,,,,,,right,2.2497789000044577,809.6858484000259,None,,,,,fw2,002,2019_Sep_23_1757,StressSession,3.2.3,59.99167315172541,
,,,,blue,cyan,blue,cyan,right,,,,,0,87,87,12,,,,,,,,,right,1.3353288000216708,812.4883458999975,None,,,,,fw2,002,2019_Sep_23_1757,StressSession,3.2.3,59.99167315172541,
,,,,yellow,purple,yellow,purple,right,,,,,0,88,88,51,,,,,,,,,right,0.9880555999989156,814.3794859000191,None,,,,,fw2,002,2019_Sep_23_1757,StressSession,3.2.3,59.99167315172541,
,,,,magenta,red,magenta,red,right,,,,,0,89,89,37,,,,,,,,,right,0.8200376000022516,815.9234608999977,None,,,,,fw2,002,2019_Sep_23_1757,StressSession,3.2.3,59.99167315172541,
,,,,purple,white,white,purple,left,,,,,0,90,90,181,,,,,,,,,left,2.1743093999975827,817.2893949999998,None,,,,,fw2,002,2019_Sep_23_1757,StressSession,3.2.3,59.99167315172541,
,,,,red,magenta,magenta,red,left,,,,,0,91,91,112,,,,,,,,,left,1.9268023000040557,820.0015536000137,None,,,,,fw2,002,2019_Sep_23_1757,StressSession,3.2.3,59.99167315172541,
,,,,green,blue,green,blue,right,,,,,0,92,92,29,,,,,,,,,right,1.3686307999887504,822.4710408000101,None,,,,,fw2,002,2019_Sep_23_1757,StressSession,3.2.3,59.99167315172541,
,,,,brown,blue,blue,brown,left,,,,,0,93,93,193,,,,,,,,,left,0.9492727000033483,824.3865898000076,None,,,,,fw2,002,2019_Sep_23_1757,StressSession,3.2.3,59.99167315172541,
,,,,green,cyan,green,cyan,right,,,,,0,94,94,21,,,,,,,,,right,0.905127599980915,825.88648440002,None,,,,,fw2,002,2019_Sep_23_1757,StressSession,3.2.3,59.99167315172541,
,,,,white,black,white,black,right,,,,,0,95,95,90,,,,,,,,,right,1.3678077000076883,827.3359281000157,None,,,,,fw2,002,2019_Sep_23_1757,StressSession,3.2.3,59.99167315172541,
,,,,red,white,red,white,right,,,,,0,96,96,8,,,,,,,,,right,1.9859804999723565,829.2458061000216,None,,,,,fw2,002,2019_Sep_23_1757,StressSession,3.2.3,59.99167315172541,
,,,,orange,red,red,orange,left,,,,,0,97,97,174,,,,,,,,,right,1.5195494000217877,831.7842449000163,None,,,,,fw2,002,2019_Sep_23_1757,StressSession,3.2.3,59.99167315172541,
,,,,cyan,black,cyan,black,right,,,,,0,98,98,45,,,,,,,,,right,2.55703560000984,833.8513320000202,None,,,,,fw2,002,2019_Sep_23_1757,StressSession,3.2.3,59.99167315172541,
,,,,green,black,green,black,right,,,,,0,99,99,27,,,,,,,,,right,1.975881299993489,836.9438207000203,None,,,,,fw2,002,2019_Sep_23_1757,StressSession,3.2.3,59.99167315172541,
,,,,cyan,green,green,cyan,left,,,,,0,100,100,158,,,,,,,,,left,1.57632829999784,839.4639671000186,None,,,,,fw2,002,2019_Sep_23_1757,StressSession,3.2.3,59.99167315172541,
,,,,green,orange,orange,green,left,,,,,0,101,101,133,,,,,,,,,left,1.5476842000207398,841.5879023000016,None,,,,,fw2,002,2019_Sep_23_1757,StressSession,3.2.3,59.99167315172541,
,,,,red,yellow,yellow,red,left,,,,,0,102,102,114,,,,,,,,,left,0.9441725000215229,843.6796183999977,None,,,,,fw2,002,2019_Sep_23_1757,StressSession,3.2.3,59.99167315172541,
,,,,purple,red,red,purple,left,,,,,0,103,103,183,,,,,,,,,left,1.2069114999903832,845.2010357000108,None,,,,,fw2,002,2019_Sep_23_1757,StressSession,3.2.3,59.99167315172541,
,,,,brown,yellow,brown,yellow,right,,,,,0,104,104,87,,,,,,,,,right,1.3374907999823336,846.9506769000145,None,,,,,fw2,002,2019_Sep_23_1757,StressSession,3.2.3,59.99167315172541,
,,,,yellow,brown,yellow,brown,right,,,,,0,105,105,52,,,,,,,,,right,1.3749739000049885,848.8325208000024,None,,,,,fw2,002,2019_Sep_23_1757,StressSession,3.2.3,59.99167315172541,
,,,,brown,red,brown,red,right,,,,,0,106,106,82,,,,,,,,,right,1.5975486999959685,850.7460926000203,None,,,,,fw2,002,2019_Sep_23_1757,StressSession,3.2.3,59.99167315172541,
,,,,orange,black,orange,black,right,,,,,0,107,107,63,,,,,,,,,right,1.424626799998805,852.8957549000042,None,,,,,fw2,002,2019_Sep_23_1757,StressSession,3.2.3,59.99167315172541,
,,,,blue,orange,orange,blue,left,,,,,0,108,108,124,,,,,,,,,left,2.2338844999903813,854.854136000009,None,,,,,fw2,002,2019_Sep_23_1757,StressSession,3.2.3,59.99167315172541,
,,,,black,green,green,black,left,,,,,0,109,109,212,,,,,,,,,left,1.363019099982921,857.6286124000035,None,,,,,fw2,002,2019_Sep_23_1757,StressSession,3.2.3,59.99167315172541,
,,,,green,orange,green,orange,right,,,,,0,110,110,23,,,,,,,,,right,1.2020074999891222,859.5414750000054,None,,,,,fw2,002,2019_Sep_23_1757,StressSession,3.2.3,59.99167315172541,
,,,,blue,orange,blue,orange,right,,,,,0,111,111,14,,,,,,,,,right,1.7692349000135437,861.2866061000095,None,,,,,fw2,002,2019_Sep_23_1757,StressSession,3.2.3,59.99167315172541,
,,,,orange,white,orange,white,right,,,,,0,112,112,62,,,,,,,,,right,1.5457595000043511,863.6138173000072,None,,,,,fw2,002,2019_Sep_23_1757,StressSession,3.2.3,59.99167315172541,
,,,,cyan,red,cyan,red,right,,,,,0,113,113,46,,,,,,,,,right,1.3544495000096504,865.7094859000063,None,,,,,fw2,002,2019_Sep_23_1757,StressSession,3.2.3,59.99167315172541,
,,,,brown,blue,brown,blue,right,,,,,0,114,114,83,,,,,,,,,right,1.0050633999926504,867.6113368000078,None,,,,,fw2,002,2019_Sep_23_1757,StressSession,3.2.3,59.99167315172541,
,,,,yellow,cyan,cyan,yellow,left,,,,,0,115,115,169,,,,,,,,,left,1.1755883999867365,869.1681347000122,None,,,,,fw2,002,2019_Sep_23_1757,StressSession,3.2.3,59.99167315172541,
,,,,white,blue,blue,white,left,,,,,0,116,116,202,,,,,,,,,left,1.5083022999751847,870.8919044000213,None,,,,,fw2,002,2019_Sep_23_1757,StressSession,3.2.3,59.99167315172541,
,,,,red,purple,purple,red,left,,,,,0,117,117,116,,,,,,,,,left,0.9591460000083316,872.9367524000118,None,,,,,fw2,002,2019_Sep_23_1757,StressSession,3.2.3,59.99167315172541,
,,,,black,cyan,cyan,black,left,,,,,0,118,118,214,,,,,,,,,left,1.0774872000038158,874.4260730000096,None,,,,,fw2,002,2019_Sep_23_1757,StressSession,3.2.3,59.99167315172541,
,,,,orange,red,orange,red,right,,,,,0,119,119,64,,,,,,,,,right,1.302961499983212,876.0567986000096,None,,,,,fw2,002,2019_Sep_23_1757,StressSession,3.2.3,59.99167315172541,
,,,,orange,blue,orange,blue,right,,,,,0,120,120,65,,,,,,,,,right,1.8714740000141319,877.8960773000144,None,,,,,fw2,002,2019_Sep_23_1757,StressSession,3.2.3,59.99167315172541,
,,,,red,blue,blue,red,left,,,,,0,121,121,110,,,,,,,,,left,1.082951900025364,880.3006241999974,None,,,,,fw2,002,2019_Sep_23_1757,StressSession,3.2.3,59.99167315172541,
,,,,purple,orange,purple,orange,right,,,,,0,122,122,79,,,,,,,,,right,1.4809537999972235,881.9267774000182,None,,,,,fw2,002,2019_Sep_23_1757,StressSession,3.2.3,59.99167315172541,
,,,,black,yellow,yellow,black,left,,,,,0,123,123,215,,,,,,,,,left,1.682279100001324,883.9573827999993,None,,,,,fw2,002,2019_Sep_23_1757,StressSession,3.2.3,59.99167315172541,
,,,,orange,black,black,orange,left,,,,,0,124,124,173,,,,,,,,,left,1.5357547999883536,886.1932056000223,None,,,,,fw2,002,2019_Sep_23_1757,StressSession,3.2.3,59.99167315172541,
,,,,blue,black,black,blue,left,,,,,0,125,125,128,,,,,,,,,right,1.0870114999997895,888.2647949000238,None,,,,,fw2,002,2019_Sep_23_1757,StressSession,3.2.3,59.99167315172541,
,,,,red,green,green,red,left,,,,,0,126,126,111,,,,,,,,,left,2.0194300999864936,889.9001034000248,None,,,,,fw2,002,2019_Sep_23_1757,StressSession,3.2.3,59.99167315172541,
,,,,green,purple,purple,green,left,,,,,0,127,127,134,,,,,,,,,left,2.1130751999735367,892.4704771000252,None,,,,,fw2,002,2019_Sep_23_1757,StressSession,3.2.3,59.99167315172541,
,,,,green,black,black,green,left,,,,,0,128,128,137,,,,,,,,,left,1.6349787999934051,895.1253980000038,None,,,,,fw2,002,2019_Sep_23_1757,StressSession,3.2.3,59.99167315172541,
,,,,magenta,yellow,yellow,magenta,left,,,,,0,129,129,141,,,,,,,,,left,0.9245193999959156,897.3072077000106,None,,,,,fw2,002,2019_Sep_23_1757,StressSession,3.2.3,59.99167315172541,
,,,,cyan,orange,orange,cyan,left,,,,,0,130,130,151,,,,,,,,,left,1.684844500006875,898.7869103999983,None,,,,,fw2,002,2019_Sep_23_1757,StressSession,3.2.3,59.99167315172541,
,,,,black,purple,purple,black,left,,,,,0,131,131,217,,,,,,,,,left,1.1082315999956336,901.0195879000239,None,,,,,fw2,002,2019_Sep_23_1757,StressSession,3.2.3,59.99167315172541,
,,,,white,red,red,white,left,,,,,0,132,132,201,,,,,,,,,left,1.0213847999984864,902.666203700006,None,,,,,fw2,002,2019_Sep_23_1757,StressSession,3.2.3,59.99167315172541,
,,,,white,green,white,green,right,,,,,0,133,133,93,,,,,,,,,right,2.123008900001878,904.2286977000185,None,,,,,fw2,002,2019_Sep_23_1757,StressSession,3.2.3,59.99167315172541,
,,,,cyan,blue,blue,cyan,left,,,,,0,134,134,157,,,,,,,,,left,1.01986170001328,906.8998464000179,None,,,,,fw2,002,2019_Sep_23_1757,StressSession,3.2.3,59.99167315172541,
,,,,blue,magenta,blue,magenta,right,,,,,0,135,135,11,,,,,,,,,right,1.857742300024256,908.4621782000177,None,,,,,fw2,002,2019_Sep_23_1757,StressSession,3.2.3,59.99167315172541,
,,,,brown,cyan,brown,cyan,right,,,,,0,136,136,86,,,,,,,,,right,1.0387332999962382,910.8649934999994,None,,,,,fw2,002,2019_Sep_23_1757,StressSession,3.2.3,59.99167315172541,
,,,,black,orange,black,orange,right,,,,,0,137,137,106,,,,,,,,,right,1.1823461999883875,912.4496542999987,None,,,,,fw2,002,2019_Sep_23_1757,StressSession,3.2.3,59.99167315172541,
,,,,red,cyan,cyan,red,left,,,,,0,138,138,113,,,,,,,,,left,1.1423044000111986,914.177325800003,None,,,,,fw2,002,2019_Sep_23_1757,StressSession,3.2.3,59.99167315172541,
,,,,cyan,yellow,cyan,yellow,right,,,,,0,139,139,40,,,,,,,,,right,0.9628300000040326,915.8609732000041,None,,,,,fw2,002,2019_Sep_23_1757,StressSession,3.2.3,59.99167315172541,
,,,,black,brown,brown,black,left,,,,,0,140,140,218,,,,,,,,,left,1.2443500999943353,917.3638164000004,None,,,,,fw2,002,2019_Sep_23_1757,StressSession,3.2.3,59.99167315172541,
,,,,red,white,white,red,left,,,,,0,141,141,118,,,,,,,,,left,1.3191177999833599,919.1444480000064,None,,,,,fw2,002,2019_Sep_23_1757,StressSession,3.2.3,59.99167315172541,
,,,,brown,yellow,yellow,brown,left,,,,,0,142,142,197,,,,,,,,,left,1.1141035000036936,921.0135564000229,None,,,,,fw2,002,2019_Sep_23_1757,StressSession,3.2.3,59.99167315172541,
,,,,blue,white,blue,white,right,,,,,0,143,143,17,,,,,,,,,right,0.9227399000083096,922.6771806000033,None,,,,,fw2,002,2019_Sep_23_1757,StressSession,3.2.3,59.99167315172541,
,,,,magenta,white,white,magenta,left,,,,,0,144,144,145,,,,,,,,,right,1.4511081000091508,924.1487314999977,None,,,,,fw2,002,2019_Sep_23_1757,StressSession,3.2.3,59.99167315172541,
,,,,orange,yellow,orange,yellow,right,,,,,0,145,145,69,,,,,,,,,right,2.017519999993965,926.1503446999996,None,,,,,fw2,002,2019_Sep_23_1757,StressSession,3.2.3,59.99167315172541,
,,,,red,green,red,green,right,,,,,0,146,146,1,,,,,,,,,right,0.8281447000044864,928.7079904999991,None,,,,,fw2,002,2019_Sep_23_1757,StressSession,3.2.3,59.99167315172541,
,,,,black,white,black,white,right,,,,,0,147,147,109,,,,,,,,,right,0.9049530999909621,930.0796055000101,None,,,,,fw2,002,2019_Sep_23_1757,StressSession,3.2.3,59.99167315172541,
,,,,cyan,purple,purple,cyan,left,,,,,0,148,148,152,,,,,,,,,left,0.8969848999986425,931.526728900004,None,,,,,fw2,002,2019_Sep_23_1757,StressSession,3.2.3,59.99167315172541,
,,,,cyan,green,cyan,green,right,,,,,0,149,149,48,,,,,,,,,right,0.7403138000227045,932.9712033000251,None,,,,,fw2,002,2019_Sep_23_1757,StressSession,3.2.3,59.99167315172541,
,,,,green,magenta,green,magenta,right,,,,,0,150,150,20,,,,,,,,,right,1.1610930999740958,934.2627007999981,None,,,,,fw2,002,2019_Sep_23_1757,StressSession,3.2.3,59.99167315172541,
,,,,purple,green,purple,green,right,,,,,0,151,151,75,,,,,,,,,right,1.1030653000052553,935.9765951000154,None,,,,,fw2,002,2019_Sep_23_1757,StressSession,3.2.3,59.99167315172541,
,,,,blue,red,blue,red,right,,,,,0,152,152,19,,,,,,,,,right,0.7453330999996979,937.6229445000063,None,,,,,fw2,002,2019_Sep_23_1757,StressSession,3.2.3,59.99167315172541,
,,,,magenta,cyan,cyan,magenta,left,,,,,0,153,153,140,,,,,,,,,left,0.88767860000371,938.9125832999998,None,,,,,fw2,002,2019_Sep_23_1757,StressSession,3.2.3,59.99167315172541,
,,,,magenta,red,red,magenta,left,,,,,0,154,154,147,,,,,,,,,left,0.8666670999955386,940.3248505000083,None,,,,,fw2,002,2019_Sep_23_1757,StressSession,3.2.3,59.99167315172541,
,,,,yellow,orange,orange,yellow,left,,,,,0,155,155,160,,,,,,,,,right,0.8141509999986738,941.7455581000249,None,,,,,fw2,002,2019_Sep_23_1757,StressSession,3.2.3,59.99167315172541,
,,,,yellow,blue,yellow,blue,right,,,,,0,156,156,56,,,,,,,,,right,0.9301336999924388,943.1023000999994,None,,,,,fw2,002,2019_Sep_23_1757,StressSession,3.2.3,59.99167315172541,
,,,,white,yellow,yellow,white,left,,,,,0,157,157,206,,,,,,,,,right,0.8621508000069298,944.5700035000045,None,,,,,fw2,002,2019_Sep_23_1757,StressSession,3.2.3,59.99167315172541,
,,,,blue,brown,blue,brown,right,,,,,0,158,158,16,,,,,,,,,right,0.9236888000159524,945.9718397000106,None,,,,,fw2,002,2019_Sep_23_1757,StressSession,3.2.3,59.99167315172541,
,,,,green,red,green,red,right,,,,,0,159,159,28,,,,,,,,,left,0.8507478999963496,947.4370390000113,None,,,,,fw2,002,2019_Sep_23_1757,StressSession,3.2.3,59.99167315172541,
,,,,red,orange,orange,red,left,,,,,0,160,160,115,,,,,,,,,left,1.2478818999952637,948.8334943000227,None,,,,,fw2,002,2019_Sep_23_1757,StressSession,3.2.3,59.99167315172541,
,,,,brown,purple,brown,purple,right,,,,,0,161,161,89,,,,,,,,,right,0.9948601000069175,950.6128876000002,None,,,,,fw2,002,2019_Sep_23_1757,StressSession,3.2.3,59.99167315172541,
,,,,magenta,blue,blue,magenta,left,,,,,0,162,162,148,,,,,,,,,left,0.903745700023137,952.1605466000037,None,,,,,fw2,002,2019_Sep_23_1757,StressSession,3.2.3,59.99167315172541,
,,,,purple,blue,purple,blue,right,,,,,0,163,163,74,,,,,,,,,right,1.0552491999987978,953.6089457000198,None,,,,,fw2,002,2019_Sep_23_1757,StressSession,3.2.3,59.99167315172541,
,,,,blue,green,green,blue,left,,,,,0,164,164,120,,,,,,,,,left,1.4264792000176385,955.197302000015,None,,,,,fw2,002,2019_Sep_23_1757,StressSession,3.2.3,59.99167315172541,
,,,,purple,orange,orange,purple,left,,,,,0,165,165,189,,,,,,,,,left,0.9931616999965627,957.1746733000036,None,,,,,fw2,002,2019_Sep_23_1757,StressSession,3.2.3,59.99167315172541,
,,,,magenta,purple,purple,magenta,left,,,,,0,166,166,143,,,,,,,,,left,2.6192786999745294,958.725228700001,None,,,,,fw2,002,2019_Sep_23_1757,StressSession,3.2.3,59.99167315172541,
,,,,magenta,orange,magenta,orange,right,,,,,0,167,167,32,,,,,,,,,right,1.3862610000069253,961.8853546000028,None,,,,,fw2,002,2019_Sep_23_1757,StressSession,3.2.3,59.99167315172541,
,,,,white,black,black,white,left,,,,,0,168,168,200,,,,,,,,,left,1.4467234000039753,963.808938400005,None,,,,,fw2,002,2019_Sep_23_1757,StressSession,3.2.3,59.99167315172541,
,,,,orange,brown,orange,brown,right,,,,,0,169,169,61,,,,,,,,,right,1.6920304999803193,965.8038218000147,None,,,,,fw2,002,2019_Sep_23_1757,StressSession,3.2.3,59.99167315172541,
,,,,blue,magenta,magenta,blue,left,,,,,0,170,170,121,,,,,,,,,left,1.417156099982094,968.0384072000161,None,,,,,fw2,002,2019_Sep_23_1757,StressSession,3.2.3,59.99167315172541,
,,,,purple,magenta,purple,magenta,right,,,,,0,171,171,76,,,,,,,,,left,1.2021873999910895,970.006882000016,None,,,,,fw2,002,2019_Sep_23_1757,StressSession,3.2.3,59.99167315172541,
,,,,brown,orange,brown,orange,right,,,,,0,172,172,88,,,,,,,,,right,1.3494559999962803,971.7543471000099,None,,,,,fw2,002,2019_Sep_23_1757,StressSession,3.2.3,59.99167315172541,
,,,,blue,purple,blue,purple,right,,,,,0,173,173,15,,,,,,,,,right,1.1496370000240859,973.6499273000227,None,,,,,fw2,002,2019_Sep_23_1757,StressSession,3.2.3,59.99167315172541,
,,,,brown,magenta,brown,magenta,right,,,,,0,174,174,85,,,,,,,,,right,1.2637715000018943,975.3517732000037,None,,,,,fw2,002,2019_Sep_23_1757,StressSession,3.2.3,59.99167315172541,
,,,,brown,green,brown,green,right,,,,,0,175,175,84,,,,,,,,,left,2.1667686000000685,977.1529961000197,None,,,,,fw2,002,2019_Sep_23_1757,StressSession,3.2.3,59.99167315172541,
,,,,red,orange,red,orange,right,,,,,0,176,176,5,,,,,,,,,right,1.2094206999754533,979.862272600003,None,,,,,fw2,002,2019_Sep_23_1757,StressSession,3.2.3,59.99167315172541,
,,,,purple,green,green,purple,left,,,,,0,177,177,185,,,,,,,,,left,1.1174647999869194,981.6184160000121,None,,,,,fw2,002,2019_Sep_23_1757,StressSession,3.2.3,59.99167315172541,
,,,,cyan,blue,cyan,blue,right,,,,,0,178,178,47,,,,,,,,,right,1.0926342000020668,983.2831528000243,None,,,,,fw2,002,2019_Sep_23_1757,StressSession,3.2.3,59.99167315172541,
,,,,orange,magenta,magenta,orange,left,,,,,0,179,179,177,,,,,,,,,left,1.1598223999899346,984.9201314000238,None,,,,,fw2,002,2019_Sep_23_1757,StressSession,3.2.3,59.99167315172541,
,,,,orange,white,white,orange,left,,,,,0,180,180,172,,,,,,,,,left,0.970497800008161,986.6211260000127,None,,,,,fw2,002,2019_Sep_23_1757,StressSession,3.2.3,59.99167315172541,
,,,,green,magenta,magenta,green,left,,,,,0,181,181,130,,,,,,,,,left,1.233388599997852,988.1342389000056,None,,,,,fw2,002,2019_Sep_23_1757,StressSession,3.2.3,59.99167315172541,
,,,,green,brown,brown,green,left,,,,,0,182,182,135,,,,,,,,,left,1.4597170000197366,989.90004030001,None,,,,,fw2,002,2019_Sep_23_1757,StressSession,3.2.3,59.99167315172541,
,,,,magenta,purple,magenta,purple,right,,,,,0,183,183,33,,,,,,,,,right,2.1208877000026405,991.9191339000245,None,,,,,fw2,002,2019_Sep_23_1757,StressSession,3.2.3,59.99167315172541,
,,,,blue,red,red,blue,left,,,,,0,184,184,129,,,,,,,,,right,1.0145392999984324,994.5770559000084,None,,,,,fw2,002,2019_Sep_23_1757,StressSession,3.2.3,59.99167315172541,
,,,,yellow,magenta,magenta,yellow,left,,,,,0,185,185,168,,,,,,,,,left,2.1931356000131927,996.1504790000035,None,,,,,fw2,002,2019_Sep_23_1757,StressSession,3.2.3,59.99167315172541,
,,,,blue,white,white,blue,left,,,,,0,186,186,127,,,,,,,,,left,1.0021302999812178,998.8935552000185,None,,,,,fw2,002,2019_Sep_23_1757,StressSession,3.2.3,59.99167315172541,
,,,,cyan,brown,brown,cyan,left,,,,,0,187,187,153,,,,,,,,,right,1.097951000003377,1000.4457296000037,None,,,,,fw2,002,2019_Sep_23_1757,StressSession,3.2.3,59.99167315172541,
,,,,white,magenta,white,magenta,right,,,,,0,188,188,94,,,,,,,,,right,1.129873600002611,1002.0939272000105,None,,,,,fw2,002,2019_Sep_23_1757,StressSession,3.2.3,59.99167315172541,
,,,,green,white,green,white,right,,,,,0,189,189,26,,,,,,,,,right,1.517587000009371,1003.7781170000089,None,,,,,fw2,002,2019_Sep_23_1757,StressSession,3.2.3,59.99167315172541,
,,,,green,red,red,green,left,,,,,0,190,190,138,,,,,,,,,left,1.225726400007261,1005.8381149000197,None,,,,,fw2,002,2019_Sep_23_1757,StressSession,3.2.3,59.99167315172541,
,,,,yellow,red,yellow,red,right,,,,,0,191,191,55,,,,,,,,,right,1.1251190999755636,1007.6106225000112,None,,,,,fw2,002,2019_Sep_23_1757,StressSession,3.2.3,59.99167315172541,
,,,,black,red,black,red,right,,,,,0,192,192,100,,,,,,,,,right,1.267205299984198,1009.2686550000217,None,,,,,fw2,002,2019_Sep_23_1757,StressSession,3.2.3,59.99167315172541,
,,,,brown,green,green,brown,left,,,,,0,193,193,194,,,,,,,,,left,0.9777284000010695,1011.0780872000032,None,,,,,fw2,002,2019_Sep_23_1757,StressSession,3.2.3,59.99167315172541,
,,,,black,magenta,magenta,black,left,,,,,0,194,194,213,,,,,,,,,left,0.9790476000052877,1012.6128137000196,None,,,,,fw2,002,2019_Sep_23_1757,StressSession,3.2.3,59.99167315172541,
,,,,green,yellow,green,yellow,right,,,,,0,195,195,22,,,,,,,,,right,1.6845631999894977,1014.1390718000184,None,,,,,fw2,002,2019_Sep_23_1757,StressSession,3.2.3,59.99167315172541,
,,,,white,cyan,white,cyan,right,,,,,0,196,196,95,,,,,,,,,right,1.9478204000042751,1016.3719849000045,None,,,,,fw2,002,2019_Sep_23_1757,StressSession,3.2.3,59.99167315172541,
,,,,white,cyan,cyan,white,left,,,,,0,197,197,205,,,,,,,,,left,0.8908926000003703,1018.868961900007,None,,,,,fw2,002,2019_Sep_23_1757,StressSession,3.2.3,59.99167315172541,
,,,,white,yellow,white,yellow,right,,,,,0,198,198,96,,,,,,,,,right,1.1048960000043735,1020.3028214000224,None,,,,,fw2,002,2019_Sep_23_1757,StressSession,3.2.3,59.99167315172541,
,,,,red,purple,red,purple,right,,,,,0,199,199,6,,,,,,,,,right,1.4079972000035923,1021.9517687000043,None,,,,,fw2,002,2019_Sep_23_1757,StressSession,3.2.3,59.99167315172541,
,,,,yellow,blue,blue,yellow,left,,,,,0,200,200,166,,,,,,,,,left,1.2519619000086095,1023.9079054000031,None,,,,,fw2,002,2019_Sep_23_1757,StressSession,3.2.3,59.99167315172541,
,,,,brown,black,brown,black,right,,,,,0,201,201,81,,,,,,,,,right,1.2202142000023741,1025.7084365000192,None,,,,,fw2,002,2019_Sep_23_1757,StressSession,3.2.3,59.99167315172541,
,,,,green,white,white,green,left,,,,,0,202,202,136,,,,,,,,,right,1.9595002999994904,1027.4721198000188,None,,,,,fw2,002,2019_Sep_23_1757,StressSession,3.2.3,59.99167315172541,
,,,,brown,red,red,brown,left,,,,,0,203,203,192,,,,,,,,,left,1.3649761999840848,1029.9705681000196,None,,,,,fw2,002,2019_Sep_23_1757,StressSession,3.2.3,59.99167315172541,
,,,,black,magenta,black,magenta,right,,,,,0,204,204,103,,,,,,,,,right,2.0558389999787323,1031.8886495000042,None,,,,,fw2,002,2019_Sep_23_1757,StressSession,3.2.3,59.99167315172541,
,,,,magenta,cyan,magenta,cyan,right,,,,,0,205,205,30,,,,,,,,,right,0.8627971000096295,1034.4890173000167,None,,,,,fw2,002,2019_Sep_23_1757,StressSession,3.2.3,59.99167315172541,
,,,,purple,cyan,purple,cyan,right,,,,,0,206,206,77,,,,,,,,,right,1.3889856000023428,1035.8986536000157,None,,,,,fw2,002,2019_Sep_23_1757,StressSession,3.2.3,59.99167315172541,
,,,,cyan,red,red,cyan,left,,,,,0,207,207,156,,,,,,,,,left,0.9227351000008639,1037.8288757000118,None,,,,,fw2,002,2019_Sep_23_1757,StressSession,3.2.3,59.99167315172541,
,,,,orange,purple,purple,orange,left,,,,,0,208,208,170,,,,,,,,,left,0.9683951000042725,1039.3033743000124,None,,,,,fw2,002,2019_Sep_23_1757,StressSession,3.2.3,59.99167315172541,
,,,,cyan,purple,cyan,purple,right,,,,,0,209,209,42,,,,,,,,,right,0.9148584999784362,1040.8207476000243,None,,,,,fw2,002,2019_Sep_23_1757,StressSession,3.2.3,59.99167315172541,
,,,,blue,yellow,blue,yellow,right,,,,,0,210,210,13,,,,,,,,,right,1.0760068999952637,1042.2840429000207,None,,,,,fw2,002,2019_Sep_23_1757,StressSession,3.2.3,59.99167315172541,
,,,,orange,purple,orange,purple,right,,,,,0,211,211,60,,,,,,,,,right,0.9928259000007529,1043.9029793000082,None,,,,,fw2,002,2019_Sep_23_1757,StressSession,3.2.3,59.99167315172541,
,,,,purple,yellow,yellow,purple,left,,,,,0,212,212,188,,,,,,,,,left,0.9271009000076447,1045.4485934000113,None,,,,,fw2,002,2019_Sep_23_1757,StressSession,3.2.3,59.99167315172541,
,,,,brown,magenta,magenta,brown,left,,,,,0,213,213,195,,,,,,,,,left,1.1037369999976363,1046.920813500008,None,,,,,fw2,002,2019_Sep_23_1757,StressSession,3.2.3,59.99167315172541,
,,,,cyan,white,white,cyan,left,,,,,0,214,214,154,,,,,,,,,left,1.4643974999780767,1048.5672258000122,None,,,,,fw2,002,2019_Sep_23_1757,StressSession,3.2.3,59.99167315172541,
,,,,orange,cyan,orange,cyan,right,,,,,0,215,215,68,,,,,,,,,right,1.2227436999964993,1050.5852824000176,None,,,,,fw2,002,2019_Sep_23_1757,StressSession,3.2.3,59.99167315172541,
,,,,yellow,green,yellow,green,right,,,,,0,216,216,57,,,,,,,,,right,1.2472198999894317,1052.3524729000055,None,,,,,fw2,002,2019_Sep_23_1757,StressSession,3.2.3,59.99167315172541,
,,,,magenta,black,black,magenta,left,,,,,0,217,217,146,,,,,,,,,left,1.1582733000104781,1054.1535568000108,None,,,,,fw2,002,2019_Sep_23_1757,StressSession,3.2.3,59.99167315172541,
,,,,white,magenta,magenta,white,left,,,,,0,218,218,204,,,,,,,,,left,1.3629155000089668,1055.8687453000166,None,,,,,fw2,002,2019_Sep_23_1757,StressSession,3.2.3,59.99167315172541,
,,,,red,yellow,red,yellow,right,,,,,0,219,219,4,,,,,,,,,right,1.2067211999965366,1057.7772112000093,None,,,,,fw2,002,2019_Sep_23_1757,StressSession,3.2.3,59.99167315172541,
,,,,,,,,,,,,,,,,,,,,5,45.721,,,,,,,,2019-09-23_18:14:41,,,,fw2,002,2019_Sep_23_1757,StressSession,3.2.3,59.99167315172541,
,,,,,,,,,,,,,,,,,,,,,,3,6.203,,,,,,,,,,fw2,002,2019_Sep_23_1757,StressSession,3.2.3,59.99167315172541,
,,,,,,,,,,,,,,,,,,,,3,17.613,,,,,,,,,2019-09-23_18:16:11,2019-09-23_18:21:11,,fw2,002,2019_Sep_23_1757,StressSession,3.2.3,59.99167315172541,
,,,,,,,,,,,,,,,,,,,,,,,,,,,,,,,,2019-09-23_18:21:31,,,,,,,
