Tick,Color,WordItem,WordColor,AnsLeft,AnsRight,AnsCorr,path,weight,name,description,type,pictures,pic_width,pic_height,new_width,new_height,new_size,tick.thisRepN,tick.thisTrialN,tick.thisN,tick.thisIndex,stroop_trials.thisRepN,stroop_trials.thisTrialN,stroop_trials.thisN,stroop_trials.thisIndex,emotion_trials_pos.thisRepN,emotion_trials_pos.thisTrialN,emotion_trials_pos.thisN,emotion_trials_pos.thisIndex,emotion_evaluation_pos.thisRepN,emotion_evaluation_pos.thisTrialN,emotion_evaluation_pos.thisN,emotion_evaluation_pos.thisIndex,emotion_trials_neg.thisRepN,emotion_trials_neg.thisTrialN,emotion_trials_neg.thisN,emotion_trials_neg.thisIndex,emotion_evaluation_neg.thisRepN,emotion_evaluation_neg.thisTrialN,emotion_evaluation_neg.thisN,emotion_evaluation_neg.thisIndex,text_welcome_screen.started,text_welcome_screen.stopped,key_resp_welcome_screen.keys,key_resp_welcome_screen.rt,key_resp_welcome_screen.started,key_resp_welcome_screen.stopped,text_baseline_screen.started,text_baseline_screen.stopped,text_baseline_measurement.started,text_baseline_measurement.stopped,rating_baseline.response,rating_baseline.rt,text_stress_screen.started,text_stress_screen.stopped,rating_stress_part_one.response,rating_stress_part_one.rt,rating_stress_part_one.started,rating_stress_part_one.stopped,key_resp_stress_part_two.keys,key_resp_stress_part_two.rt,key_resp_stress_part_two.started,key_resp_stress_part_two.stopped,rating_stress_part_two.response,rating_stress_part_two.rt,rating_stress_part_two.started,rating_stress_part_two.stopped,text_cooldown_countdown.started,text_cooldown_countdown.stopped,text_cooldown_measurement.started,text_cooldown_measurement.stopped,rating_cooldown.response,rating_cooldown.rt,rating_cooldown.started,rating_cooldown.stopped,image_emotion_meas_pos.started,image_emotion_meas_pos.stopped,image_emotion_evaluation_pos.started,image_emotion_evaluation_pos.stopped,rating_emotion_evaluation_pos.response,rating_emotion_evaluation_pos.rt,rating_emotion_evaluation_pos.started,rating_emotion_evaluation_pos.stopped,image_emotion_meas_neg.started,image_emotion_meas_neg.stopped,image_emotion_evaluation_neg.started,image_emotion_evaluation_neg.stopped,rating_emotion_evaluation_neg.response,rating_emotion_evaluation_neg.rt,rating_emotion_evaluation_neg.started,rating_emotion_evaluation_neg.stopped,text_ending_screen.started,text_ending_screen.stopped,participant,session,startTime,date,expName,psychopyVersion,frameRate,
,,,,,,,,,,,,,,,,,,,,,,,,,,,,,,,,,,,,,,,,,,32.05588420003187,None,space,1.1171068999683484,32.05588420003187,None,,,,,,,,,,,,,,,,,,,,,,,,,,,,,,,,,,,,,,,,,,,,,,,dominik,001,,2019_Aug_22_1639,MTEC_paradigm,3.1.3,147.90055155927558,
,,,,,,,,,,,,,,,,,,,,,,,,,,,,,,,,,,,,,,,,,,,,,,,,33.18501140002627,None,53.69084000005387,None,1,12.711,,,,,,,,,,,,,,,,,,,,,,,,,,,,,,,,,,,,,,,,,dominik,001,,2019_Aug_22_1639,MTEC_paradigm,3.1.3,147.90055155927558,
2,green,,,,,,,,,,,,,,,,,0,0,0,0,,,,,,,,,,,,,,,,,,,,,,,,,,,,,,,,,72.47516620007809,None,,,,,,,,,,,,,,,,,,,,,,,,,,,,,,,,,,,,,,,dominik,001,,2019_Aug_22_1639,MTEC_paradigm,3.1.3,147.90055155927558,
3,green,,,,,,,,,,,,,,,,,0,1,1,1,,,,,,,,,,,,,,,,,,,,,,,,,,,,,,,,,,,,,,,,,,,,,,,,,,,,,,,,,,,,,,,,,,,,,,,,,dominik,001,,2019_Aug_22_1639,MTEC_paradigm,3.1.3,147.90055155927558,
4,green,,,,,,,,,,,,,,,,,0,2,2,2,,,,,,,,,,,,,,,,,,,,,,,,,,,,,,,,,,,,,,,,,,,,,,,,,,,,,,,,,,,,,,,,,,,,,,,,,dominik,001,,2019_Aug_22_1639,MTEC_paradigm,3.1.3,147.90055155927558,
5,green,,,,,,,,,,,,,,,,,0,3,3,3,,,,,,,,,,,,,,,,,,,,,,,,,,,,,,,,,,,,,,,,,,,,,,,,,,,,,,,,,,,,,,,,,,,,,,,,,dominik,001,,2019_Aug_22_1639,MTEC_paradigm,3.1.3,147.90055155927558,
6,green,,,,,,,,,,,,,,,,,0,4,4,4,,,,,,,,,,,,,,,,,,,,,,,,,,,,,,,,,,,,,,,,,,,,,,,,,,,,,,,,,,,,,,,,,,,,,,,,,dominik,001,,2019_Aug_22_1639,MTEC_paradigm,3.1.3,147.90055155927558,
7,green,,,,,,,,,,,,,,,,,0,5,5,5,,,,,,,,,,,,,,,,,,,,,,,,,,,,,,,,,,,,,,,,,,,,,,,,,,,,,,,,,,,,,,,,,,,,,,,,,dominik,001,,2019_Aug_22_1639,MTEC_paradigm,3.1.3,147.90055155927558,
8,green,,,,,,,,,,,,,,,,,0,6,6,6,,,,,,,,,,,,,,,,,,,,,,,,,,,,,,,,,,,,,,,,,,,,,,,,,,,,,,,,,,,,,,,,,,,,,,,,,dominik,001,,2019_Aug_22_1639,MTEC_paradigm,3.1.3,147.90055155927558,
9,green,,,,,,,,,,,,,,,,,0,7,7,7,,,,,,,,,,,,,,,,,,,,,,,,,,,,,,,,,,,,,,,,,,,,,,,,,,,,,,,,,,,,,,,,,,,,,,,,,dominik,001,,2019_Aug_22_1639,MTEC_paradigm,3.1.3,147.90055155927558,
10,green,,,,,,,,,,,,,,,,,0,8,8,8,,,,,,,,,,,,,,,,,,,,,,,,,,,,,,,,,,,,,,,,,,,,,,,,,,,,,,,,,,,,,,,,,,,,,,,,,dominik,001,,2019_Aug_22_1639,MTEC_paradigm,3.1.3,147.90055155927558,
,,,,,,,,,,,,,,,,,,,,,,,,,,,,,,,,,,,,,,,,,,,,,,,,,,,,,,,,1,5.666,,,,,,,,,,,,,,,,,,,,,,,,,,,,,,,,,,,,,dominik,001,,2019_Aug_22_1639,MTEC_paradigm,3.1.3,147.90055155927558,
,,red,green,red,green,right,,,,,,,,,,,,,,,,0,0,0,0,,,,,,,,,,,,,,,,,,,,,,,,,,,,,,,,,0.0006554999854415655,None,right,1.4606054000323638,107.15447080007289,None,,,,,,,,,,,,,,,,,,,,,,,,,,,,,,,dominik,001,,2019_Aug_22_1639,MTEC_paradigm,3.1.3,147.90055155927558,
,,red,magenta,red,magenta,right,,,,,,,,,,,,,,,,0,1,1,1,,,,,,,,,,,,,,,,,,,,,,,,,,,,,,,,,,,right,0.1836432000854984,108.62936340004671,None,,,,,,,,,,,,,,,,,,,,,,,,,,,,,,,dominik,001,,2019_Aug_22_1639,MTEC_paradigm,3.1.3,147.90055155927558,
,,red,cyan,red,cyan,right,,,,,,,,,,,,,,,,0,2,2,2,,,,,,,,,,,,,,,,,,,,,,,,,,,,,,,,,,,right,0.16007250000257045,108.8319332000101,None,,,,,,,,,,,,,,,,,,,,,,,,,,,,,,,dominik,001,,2019_Aug_22_1639,MTEC_paradigm,3.1.3,147.90055155927558,
,,red,orange,red,orange,right,,,,,,,,,,,,,,,,0,3,3,4,,,,,,,,,,,,,,,,,,,,,,,,,,,,,,,,,,,right,0.18872790003661066,109.00927779998165,None,,,,,,,,,,,,,,,,,,,,,,,,,,,,,,,dominik,001,,2019_Aug_22_1639,MTEC_paradigm,3.1.3,147.90055155927558,
,,red,yellow,red,yellow,right,,,,,,,,,,,,,,,,0,4,4,3,,,,,,,,,,,,,,,,,,,,,,,,,,,,,,,,,,,right,0.273759700008668,109.21224780008197,None,,,,,,,,,,,,,,,,,,,,,,,,,,,,,,,dominik,001,,2019_Aug_22_1639,MTEC_paradigm,3.1.3,147.90055155927558,
,,,,,,,,,,,,,,,,,,,,,,,,,,,,,,,,,,,,,,,,,,,,,,,,,,,,,,,,,,,,,,,,2,1.979,,,,,,,,,,,,,,,,,,,,,,,,,,,,,dominik,001,,2019_Aug_22_1639,MTEC_paradigm,3.1.3,147.90055155927558,
,,,,,,,,,,,,,,,,,,,,,,,,,,,,,,,,,,,,,,,,,,,,,,,,,,,,,,,,,,,,,,,,,,0.0006440000142902136,None,123.10757930006366,None,133.09782530006487,None,1,2.552,,,,,,,,,,,,,,,,,,,,,dominik,001,,2019_Aug_22_1639,MTEC_paradigm,3.1.3,147.90055155927558,
,,,,,,,resources\pictures\,Positive\,8380.0,team medals,.jpg,resources\pictures\Positive\8380.jpg,1024,768,1.9,1,"(1.9, 1)",,,,,,,,,0,0,0,0,,,,,,,,,,,,,,,,,,,,,,,,,,,,,,,,,,,,,,,,,,,,,0.0006301000248640776,None,161.507260399987,None,,,,,,,,,,,,,,,,,dominik,001,,2019_Aug_22_1639,MTEC_paradigm,3.1.3,147.90055155927558,
,,,,,,,resources\pictures\,Positive\,8501.0,money,.jpg,resources\pictures\Positive\8501.jpg,1024,768,1.9,1,"(1.9, 1)",,,,,,,,,0,1,1,3,,,,,,,,,,,,,,,,,,,,,,,,,,,,,,,,,,,,,,,,,,,,,,,171.48146320006344,None,,,,,,,,,,,,,,,,,dominik,001,,2019_Aug_22_1639,MTEC_paradigm,3.1.3,147.90055155927558,
,,,,,,,resources\pictures\,Positive\,8470.0,gymnist success,.jpg,resources\pictures\Positive\8470.jpg,1024,768,1.9,1,"(1.9, 1)",,,,,,,,,0,2,2,1,,,,,,,,,,,,,,,,,,,,,,,,,,,,,,,,,,,,,,,,,,,,,,,181.48277380003128,None,,,,,,,,,,,,,,,,,dominik,001,,2019_Aug_22_1639,MTEC_paradigm,3.1.3,147.90055155927558,
,,,,,,,resources\pictures\,Positive\,8497.0,family on rollercoaster,.jpg,resources\pictures\Positive\8497.jpg,1024,768,1.9,1,"(1.9, 1)",,,,,,,,,0,3,3,2,,,,,,,,,,,,,,,,,,,,,,,,,,,,,,,,,,,,,,,,,,,,,,,191.48452310007997,None,,,,,,,,,,,,,,,,,dominik,001,,2019_Aug_22_1639,MTEC_paradigm,3.1.3,147.90055155927558,
,,,,,,,resources\pictures\,Positive\,8501.0,money,.jpg,resources\pictures\Positive\8501.jpg,1024,768,1.9,1,"(1.9, 1)",,,,,,,,,,,,,0,0,0,3,,,,,,,,,,,,,,,,,,,,,,,,,,,,,,,,,,,,,,,,,,,,,201.55744830006734,None,3,4.094,0.04060010006651282,None,,,,,,,,,,,dominik,001,,2019_Aug_22_1639,MTEC_paradigm,3.1.3,147.90055155927558,
,,,,,,,resources\pictures\,Positive\,8470.0,gymnist success,.jpg,resources\pictures\Positive\8470.jpg,1024,768,1.9,1,"(1.9, 1)",,,,,,,,,,,,,0,1,1,1,,,,,,,,,,,,,,,,,,,,,,,,,,,,,,,,,,,,,,,,,,,,,205.67682380008046,None,3,2.633,0.01800450007431209,None,,,,,,,,,,,dominik,001,,2019_Aug_22_1639,MTEC_paradigm,3.1.3,147.90055155927558,
,,,,,,,resources\pictures\,Positive\,8497.0,family on rollercoaster,.jpg,resources\pictures\Positive\8497.jpg,1024,768,1.9,1,"(1.9, 1)",,,,,,,,,,,,,0,2,2,2,,,,,,,,,,,,,,,,,,,,,,,,,,,,,,,,,,,,,,,,,,,,,208.3378176999977,None,3,2.363,0.017875000019557774,None,,,,,,,,,,,dominik,001,,2019_Aug_22_1639,MTEC_paradigm,3.1.3,147.90055155927558,
,,,,,,,resources\pictures\,Positive\,8380.0,team medals,.jpg,resources\pictures\Positive\8380.jpg,1024,768,1.9,1,"(1.9, 1)",,,,,,,,,,,,,0,3,3,0,,,,,,,,,,,,,,,,,,,,,,,,,,,,,,,,,,,,,,,,,,,,,210.72885800001677,None,3,1.876,0.018936100066639483,None,,,,,,,,,,,dominik,001,,2019_Aug_22_1639,MTEC_paradigm,3.1.3,147.90055155927558,
,,,,,,,,,,,,,,,,,,,,,,,,,,,,,,,,,,,,,,,,,,,,,,,,,,,,,,,,,,,,,,,,,,,,223.15990670002066,None,,,2,4.523,,,,,,,,,,,,,,,,,,,,,dominik,001,,2019_Aug_22_1639,MTEC_paradigm,3.1.3,147.90055155927558,
,,,,,,,resources\pictures\,Negative\,1300.0,dog threat 1,.jpg,resources\pictures\Negative\1300.jpg,1024,768,1.9,1,"(1.9, 1)",,,,,,,,,,,,,,,,,0,0,0,2,,,,,,,,,,,,,,,,,,,,,,,,,,,,,,,,,,,,,0.0028635000344365835,None,,,,,,,,,245.95402579999063,None,,,,,,,,,dominik,001,,2019_Aug_22_1639,MTEC_paradigm,3.1.3,147.90055155927558,
,,,,,,,resources\pictures\,Negative\,1240.0,spider,.jpg,resources\pictures\Negative\1240.jpg,1024,768,1.9,1,"(1.9, 1)",,,,,,,,,,,,,,,,,0,1,1,1,,,,,,,,,,,,,,,,,,,,,,,,,,,,,,,,,,,,,,,,,,,,,,,255.92445769999176,None,,,,,,,,,dominik,001,,2019_Aug_22_1639,MTEC_paradigm,3.1.3,147.90055155927558,
,,,,,,,resources\pictures\,Negative\,1112.0,snake at feet,.jpg,resources\pictures\Negative\1112.jpg,1024,768,1.9,1,"(1.9, 1)",,,,,,,,,,,,,,,,,0,2,2,0,,,,,,,,,,,,,,,,,,,,,,,,,,,,,,,,,,,,,,,,,,,,,,,265.92746879998595,None,,,,,,,,,dominik,001,,2019_Aug_22_1639,MTEC_paradigm,3.1.3,147.90055155927558,
,,,,,,,resources\pictures\,Negative\,1112.0,snake at feet,.jpg,resources\pictures\Negative\1112.jpg,1024,768,1.9,1,"(1.9, 1)",,,,,,,,,,,,,,,,,,,,,0,0,0,0,,,,,,,,,,,,,,,,,,,,,,,,,,,,,,,,,,,,,,,,,,,,,276.0254084999906,None,2,2.415,0.039547800086438656,None,,,dominik,001,,2019_Aug_22_1639,MTEC_paradigm,3.1.3,147.90055155927558,
,,,,,,,resources\pictures\,Negative\,1300.0,dog threat 1,.jpg,resources\pictures\Negative\1300.jpg,1024,768,1.9,1,"(1.9, 1)",,,,,,,,,,,,,,,,,,,,,0,1,1,2,,,,,,,,,,,,,,,,,,,,,,,,,,,,,,,,,,,,,,,,,,,,,278.46584700001404,None,2,1.198,0.01786090002860874,None,,,dominik,001,,2019_Aug_22_1639,MTEC_paradigm,3.1.3,147.90055155927558,
,,,,,,,resources\pictures\,Negative\,1240.0,spider,.jpg,resources\pictures\Negative\1240.jpg,1024,768,1.9,1,"(1.9, 1)",,,,,,,,,,,,,,,,,,,,,0,2,2,1,,,,,,,,,,,,,,,,,,,,,,,,,,,,,,,,,,,,,,,,,,,,,279.6903634000337,None,2,1.327,0.017242199974134564,None,,,dominik,001,,2019_Aug_22_1639,MTEC_paradigm,3.1.3,147.90055155927558,
,,,,,,,,,,,,,,,,,,,,,,,,,,,,,,,,,,,,,,,,,,,,,,,,,,,,,,,,,,,,,,,,,,,,291.5735482000746,None,301.5642950000474,None,1,2.011,,,,,,,,,,,,,,,,,,,,,dominik,001,,2019_Aug_22_1639,MTEC_paradigm,3.1.3,147.90055155927558,
,,,,,,,,,,,,,,,,,,,,,,,,,,,,,,,,,,,,,,,,,,,,,,,,,,,,,,,,,,,,,,,,,,,,,,,,,,0.0030560001032426953,None,,,,,,,,,,,,,,,,,309.6271754000336,None,,,,,,,,
