Tick,Color,WordItem,WordColor,AnsLeft,AnsRight,AnsCorr,path,weight,name,description,type,pictures,pic_width,pic_height,new_width,new_height,new_size,tick.thisRepN,tick.thisTrialN,tick.thisN,tick.thisIndex,stroop_trials.thisRepN,stroop_trials.thisTrialN,stroop_trials.thisN,stroop_trials.thisIndex,emotion_trials_pos.thisRepN,emotion_trials_pos.thisTrialN,emotion_trials_pos.thisN,emotion_trials_pos.thisIndex,emotion_evaluation_pos.thisRepN,emotion_evaluation_pos.thisTrialN,emotion_evaluation_pos.thisN,emotion_evaluation_pos.thisIndex,emotion_trials_neg.thisRepN,emotion_trials_neg.thisTrialN,emotion_trials_neg.thisN,emotion_trials_neg.thisIndex,emotion_evaluation_neg.thisRepN,emotion_evaluation_neg.thisTrialN,emotion_evaluation_neg.thisN,emotion_evaluation_neg.thisIndex,text_welcome_screen.started,text_welcome_screen.stopped,key_resp_welcome_screen.keys,key_resp_welcome_screen.rt,key_resp_welcome_screen.started,key_resp_welcome_screen.stopped,text_baseline_screen.started,text_baseline_screen.stopped,text_baseline_measurement.started,text_baseline_measurement.stopped,rating_baseline.response,rating_baseline.rt,text_stress_screen.started,text_stress_screen.stopped,sound_1.started,sound_1.stopped,rating_stress_part_one.response,rating_stress_part_one.rt,rating_stress_part_one.started,rating_stress_part_one.stopped,key_resp_stress_part_two.keys,key_resp_stress_part_two.rt,key_resp_stress_part_two.started,key_resp_stress_part_two.stopped,rating_stress_part_two.response,rating_stress_part_two.rt,rating_stress_part_two.started,rating_stress_part_two.stopped,text_cooldown_countdown.started,text_cooldown_countdown.stopped,text_cooldown_measurement.started,text_cooldown_measurement.stopped,rating_cooldown.response,rating_cooldown.rt,rating_cooldown.started,rating_cooldown.stopped,image_emotion_meas_pos.started,image_emotion_meas_pos.stopped,image_emotion_evaluation_pos.started,image_emotion_evaluation_pos.stopped,rating_emotion_evaluation_pos.response,rating_emotion_evaluation_pos.rt,rating_emotion_evaluation_pos.started,rating_emotion_evaluation_pos.stopped,image_emotion_meas_neg.started,image_emotion_meas_neg.stopped,image_emotion_evaluation_neg.started,image_emotion_evaluation_neg.stopped,rating_emotion_evaluation_neg.response,rating_emotion_evaluation_neg.rt,rating_emotion_evaluation_neg.started,rating_emotion_evaluation_neg.stopped,text_ending_screen.started,text_ending_screen.stopped,participant,session,startTime,date,expName,psychopyVersion,frameRate,
,,,,,,,,,,,,,,,,,,,,,,,,,,,,,,,,,,,,,,,,,,12.050456700002542,None,space,5.758129900001222,12.050456700002542,None,,,,,,,,,,,,,,,,,,,,,,,,,,,,,,,,,,,,,,,,,,,,,,,,,dominik,001,,2019_Aug_26_1436,MTEC_paradigm,3.1.3,148.16351323223356,
,,,,,,,,,,,,,,,,,,,,,,,,,,,,,,,,,,,,,,,,,,,,,,,,17.821673800004646,None,38.32855989999371,None,2,7.099,,,,,,,,,,,,,,,,,,,,,,,,,,,,,,,,,,,,,,,,,,,dominik,001,,2019_Aug_26_1436,MTEC_paradigm,3.1.3,148.16351323223356,
2,green,,,,,,,,,,,,,,,,,0,0,0,0,,,,,,,,,,,,,,,,,,,,,,,,,,,,,,,,,407.1944691000099,None,425.8184184000129,None,,,,,,,,,,,,,,,,,,,,,,,,,,,,,,,,,,,,,,,dominik,001,,2019_Aug_26_1436,MTEC_paradigm,3.1.3,148.16351323223356,
3,green,,,,,,,,,,,,,,,,,0,1,1,1,,,,,,,,,,,,,,,,,,,,,,,,,,,,,,,,,,,426.79091460001655,None,,,,,,,,,,,,,,,,,,,,,,,,,,,,,,,,,,,,,,,dominik,001,,2019_Aug_26_1436,MTEC_paradigm,3.1.3,148.16351323223356,
4,green,,,,,,,,,,,,,,,,,0,2,2,2,,,,,,,,,,,,,,,,,,,,,,,,,,,,,,,,,,,427.7906343000068,None,,,,,,,,,,,,,,,,,,,,,,,,,,,,,,,,,,,,,,,dominik,001,,2019_Aug_26_1436,MTEC_paradigm,3.1.3,148.16351323223356,
5,green,,,,,,,,,,,,,,,,,0,3,3,3,,,,,,,,,,,,,,,,,,,,,,,,,,,,,,,,,,,428.79001910000807,None,,,,,,,,,,,,,,,,,,,,,,,,,,,,,,,,,,,,,,,dominik,001,,2019_Aug_26_1436,MTEC_paradigm,3.1.3,148.16351323223356,
6,green,,,,,,,,,,,,,,,,,0,4,4,4,,,,,,,,,,,,,,,,,,,,,,,,,,,,,,,,,,,429.79024060000665,None,,,,,,,,,,,,,,,,,,,,,,,,,,,,,,,,,,,,,,,dominik,001,,2019_Aug_26_1436,MTEC_paradigm,3.1.3,148.16351323223356,
7,green,,,,,,,,,,,,,,,,,0,5,5,5,,,,,,,,,,,,,,,,,,,,,,,,,,,,,,,,,,,430.790018700005,None,,,,,,,,,,,,,,,,,,,,,,,,,,,,,,,,,,,,,,,dominik,001,,2019_Aug_26_1436,MTEC_paradigm,3.1.3,148.16351323223356,
8,green,,,,,,,,,,,,,,,,,0,6,6,6,,,,,,,,,,,,,,,,,,,,,,,,,,,,,,,,,,,431.78973039999255,None,,,,,,,,,,,,,,,,,,,,,,,,,,,,,,,,,,,,,,,dominik,001,,2019_Aug_26_1436,MTEC_paradigm,3.1.3,148.16351323223356,
9,green,,,,,,,,,,,,,,,,,0,7,7,7,,,,,,,,,,,,,,,,,,,,,,,,,,,,,,,,,,,432.789179400017,433.28880979999667,,,,,,,,,,,,,,,,,,,,,,,,,,,,,,,,,,,,,,,dominik,001,,2019_Aug_26_1436,MTEC_paradigm,3.1.3,148.16351323223356,
10,green,,,,,,,,,,,,,,,,,0,8,8,8,,,,,,,,,,,,,,,,,,,,,,,,,,,,,,,,,,,433.79225349999615,None,,,,,,,,,,,,,,,,,,,,,,,,,,,,,,,,,,,,,,,dominik,001,,2019_Aug_26_1436,MTEC_paradigm,3.1.3,148.16351323223356,
11,green,,,,,,,,,,,,,,,,,0,9,9,9,,,,,,,,,,,,,,,,,,,,,,,,,,,,,,,,,,,434.7872323000047,435.28691960001015,,,,,,,,,,,,,,,,,,,,,,,,,,,,,,,,,,,,,,,dominik,001,,2019_Aug_26_1436,MTEC_paradigm,3.1.3,148.16351323223356,
12,green,,,,,,,,,,,,,,,,,0,10,10,10,,,,,,,,,,,,,,,,,,,,,,,,,,,,,,,,,,,435.7923207000131,None,,,,,,,,,,,,,,,,,,,,,,,,,,,,,,,,,,,,,,,dominik,001,,2019_Aug_26_1436,MTEC_paradigm,3.1.3,148.16351323223356,
13,green,,,,,,,,,,,,,,,,,0,11,11,11,,,,,,,,,,,,,,,,,,,,,,,,,,,,,,,,,,,436.79034000000684,None,,,,,,,,,,,,,,,,,,,,,,,,,,,,,,,,,,,,,,,dominik,001,,2019_Aug_26_1436,MTEC_paradigm,3.1.3,148.16351323223356,
14,green,,,,,,,,,,,,,,,,,0,12,12,12,,,,,,,,,,,,,,,,,,,,,,,,,,,,,,,,,,,437.78705600000103,438.286769600003,,,,,,,,,,,,,,,,,,,,,,,,,,,,,,,,,,,,,,,dominik,001,,2019_Aug_26_1436,MTEC_paradigm,3.1.3,148.16351323223356,
15,green,,,,,,,,,,,,,,,,,0,13,13,13,,,,,,,,,,,,,,,,,,,,,,,,,,,,,,,,,,,438.7887779000157,None,,,,,,,,,,,,,,,,,,,,,,,,,,,,,,,,,,,,,,,dominik,001,,2019_Aug_26_1436,MTEC_paradigm,3.1.3,148.16351323223356,
16,green,,,,,,,,,,,,,,,,,0,14,14,14,,,,,,,,,,,,,,,,,,,,,,,,,,,,,,,,,,,439.7887464000087,None,,,,,,,,,,,,,,,,,,,,,,,,,,,,,,,,,,,,,,,dominik,001,,2019_Aug_26_1436,MTEC_paradigm,3.1.3,148.16351323223356,
17,green,,,,,,,,,,,,,,,,,0,15,15,15,,,,,,,,,,,,,,,,,,,,,,,,,,,,,,,,,,,440.7882144000032,441.28783780001686,,,,,,,,,,,,,,,,,,,,,,,,,,,,,,,,,,,,,,,dominik,001,,2019_Aug_26_1436,MTEC_paradigm,3.1.3,148.16351323223356,
18,green,,,,,,,,,,,,,,,,,0,16,16,16,,,,,,,,,,,,,,,,,,,,,,,,,,,,,,,,,,,441.7950332000037,None,,,,,,,,,,,,,,,,,,,,,,,,,,,,,,,,,,,,,,,dominik,001,,2019_Aug_26_1436,MTEC_paradigm,3.1.3,148.16351323223356,
19,green,,,,,,,,,,,,,,,,,0,17,17,17,,,,,,,,,,,,,,,,,,,,,,,,,,,,,,,,,,,442.79496500000823,None,,,,,,,,,,,,,,,,,,,,,,,,,,,,,,,,,,,,,,,dominik,001,,2019_Aug_26_1436,MTEC_paradigm,3.1.3,148.16351323223356,
20,green,,,,,,,,,,,,,,,,,0,18,18,18,,,,,,,,,,,,,,,,,,,,,,,,,,,,,,,,,,,443.7949676999997,None,,,,,,,,,,,,,,,,,,,,,,,,,,,,,,,,,,,,,,,dominik,001,,2019_Aug_26_1436,MTEC_paradigm,3.1.3,148.16351323223356,
21,green,,,,,,,,,,,,,,,,,0,19,19,19,,,,,,,,,,,,,,,,,,,,,,,,,,,,,,,,,,,444.79444570001215,None,,,,,,,,,,,,,,,,,,,,,,,,,,,,,,,,,,,,,,,dominik,001,,2019_Aug_26_1436,MTEC_paradigm,3.1.3,148.16351323223356,
22,green,,,,,,,,,,,,,,,,,0,20,20,20,,,,,,,,,,,,,,,,,,,,,,,,,,,,,,,,,,,445.79521070001647,None,,,,,,,,,,,,,,,,,,,,,,,,,,,,,,,,,,,,,,,dominik,001,,2019_Aug_26_1436,MTEC_paradigm,3.1.3,148.16351323223356,
23,green,,,,,,,,,,,,,,,,,0,21,21,21,,,,,,,,,,,,,,,,,,,,,,,,,,,,,,,,,,,446.7902412000112,None,,,,,,,,,,,,,,,,,,,,,,,,,,,,,,,,,,,,,,,dominik,001,,2019_Aug_26_1436,MTEC_paradigm,3.1.3,148.16351323223356,
24,green,,,,,,,,,,,,,,,,,0,22,22,22,,,,,,,,,,,,,,,,,,,,,,,,,,,,,,,,,,,447.7896774999972,None,,,,,,,,,,,,,,,,,,,,,,,,,,,,,,,,,,,,,,,dominik,001,,2019_Aug_26_1436,MTEC_paradigm,3.1.3,148.16351323223356,
25,green,,,,,,,,,,,,,,,,,0,23,23,23,,,,,,,,,,,,,,,,,,,,,,,,,,,,,,,,,,,448.7868226999999,449.286692099995,,,,,,,,,,,,,,,,,,,,,,,,,,,,,,,,,,,,,,,dominik,001,,2019_Aug_26_1436,MTEC_paradigm,3.1.3,148.16351323223356,
26,green,,,,,,,,,,,,,,,,,0,24,24,24,,,,,,,,,,,,,,,,,,,,,,,,,,,,,,,,,,,449.7887148000009,450.28837990001193,,,,,,,,,,,,,,,,,,,,,,,,,,,,,,,,,,,,,,,dominik,001,,2019_Aug_26_1436,MTEC_paradigm,3.1.3,148.16351323223356,
27,green,,,,,,,,,,,,,,,,,0,25,25,25,,,,,,,,,,,,,,,,,,,,,,,,,,,,,,,,,,,450.7950750000018,None,,,,,,,,,,,,,,,,,,,,,,,,,,,,,,,,,,,,,,,dominik,001,,2019_Aug_26_1436,MTEC_paradigm,3.1.3,148.16351323223356,
28,green,,,,,,,,,,,,,,,,,0,26,26,26,,,,,,,,,,,,,,,,,,,,,,,,,,,,,,,,,,,451.7954535000026,None,,,,,,,,,,,,,,,,,,,,,,,,,,,,,,,,,,,,,,,dominik,001,,2019_Aug_26_1436,MTEC_paradigm,3.1.3,148.16351323223356,
29,green,,,,,,,,,,,,,,,,,0,27,27,27,,,,,,,,,,,,,,,,,,,,,,,,,,,,,,,,,,,452.7952443000104,None,,,,,,,,,,,,,,,,,,,,,,,,,,,,,,,,,,,,,,,dominik,001,,2019_Aug_26_1436,MTEC_paradigm,3.1.3,148.16351323223356,
30,green,,,,,,,,,,,,,,,,,0,28,28,28,,,,,,,,,,,,,,,,,,,,,,,,,,,,,,,,,,,453.79513129999395,None,,,,,,,,,,,,,,,,,,,,,,,,,,,,,,,,,,,,,,,dominik,001,,2019_Aug_26_1436,MTEC_paradigm,3.1.3,148.16351323223356,
31,green,,,,,,,,,,,,,,,,,0,29,29,29,,,,,,,,,,,,,,,,,,,,,,,,,,,,,,,,,,,454.79022300001816,None,,,,,,,,,,,,,,,,,,,,,,,,,,,,,,,,,,,,,,,dominik,001,,2019_Aug_26_1436,MTEC_paradigm,3.1.3,148.16351323223356,
32,green,,,,,,,,,,,,,,,,,0,30,30,30,,,,,,,,,,,,,,,,,,,,,,,,,,,,,,,,,,,455.7901681000076,None,,,,,,,,,,,,,,,,,,,,,,,,,,,,,,,,,,,,,,,dominik,001,,2019_Aug_26_1436,MTEC_paradigm,3.1.3,148.16351323223356,
33,green,,,,,,,,,,,,,,,,,0,31,31,31,,,,,,,,,,,,,,,,,,,,,,,,,,,,,,,,,,,456.79027759999735,None,,,,,,,,,,,,,,,,,,,,,,,,,,,,,,,,,,,,,,,dominik,001,,2019_Aug_26_1436,MTEC_paradigm,3.1.3,148.16351323223356,
34,green,,,,,,,,,,,,,,,,,0,32,32,32,,,,,,,,,,,,,,,,,,,,,,,,,,,,,,,,,,,457.79009910000605,None,,,,,,,,,,,,,,,,,,,,,,,,,,,,,,,,,,,,,,,dominik,001,,2019_Aug_26_1436,MTEC_paradigm,3.1.3,148.16351323223356,
35,green,,,,,,,,,,,,,,,,,0,33,33,33,,,,,,,,,,,,,,,,,,,,,,,,,,,,,,,,,,,458.7910971000092,None,,,,,,,,,,,,,,,,,,,,,,,,,,,,,,,,,,,,,,,dominik,001,,2019_Aug_26_1436,MTEC_paradigm,3.1.3,148.16351323223356,
36,green,,,,,,,,,,,,,,,,,0,34,34,34,,,,,,,,,,,,,,,,,,,,,,,,,,,,,,,,,,,459.7922474000079,None,,,,,,,,,,,,,,,,,,,,,,,,,,,,,,,,,,,,,,,dominik,001,,2019_Aug_26_1436,MTEC_paradigm,3.1.3,148.16351323223356,
37,green,,,,,,,,,,,,,,,,,0,35,35,35,,,,,,,,,,,,,,,,,,,,,,,,,,,,,,,,,,,460.78720680001425,461.28682209999533,,,,,,,,,,,,,,,,,,,,,,,,,,,,,,,,,,,,,,,dominik,001,,2019_Aug_26_1436,MTEC_paradigm,3.1.3,148.16351323223356,
38,green,,,,,,,,,,,,,,,,,0,36,36,36,,,,,,,,,,,,,,,,,,,,,,,,,,,,,,,,,,,461.7947814000072,None,,,,,,,,,,,,,,,,,,,,,,,,,,,,,,,,,,,,,,,dominik,001,,2019_Aug_26_1436,MTEC_paradigm,3.1.3,148.16351323223356,
39,green,,,,,,,,,,,,,,,,,0,37,37,37,,,,,,,,,,,,,,,,,,,,,,,,,,,,,,,,,,,462.79450620000716,None,,,,,,,,,,,,,,,,,,,,,,,,,,,,,,,,,,,,,,,dominik,001,,2019_Aug_26_1436,MTEC_paradigm,3.1.3,148.16351323223356,
40,green,,,,,,,,,,,,,,,,,0,38,38,38,,,,,,,,,,,,,,,,,,,,,,,,,,,,,,,,,,,463.79461899999296,None,,,,,,,,,,,,,,,,,,,,,,,,,,,,,,,,,,,,,,,dominik,001,,2019_Aug_26_1436,MTEC_paradigm,3.1.3,148.16351323223356,
41,green,,,,,,,,,,,,,,,,,0,39,39,39,,,,,,,,,,,,,,,,,,,,,,,,,,,,,,,,,,,464.79247260000557,None,,,,,,,,,,,,,,,,,,,,,,,,,,,,,,,,,,,,,,,dominik,001,,2019_Aug_26_1436,MTEC_paradigm,3.1.3,148.16351323223356,
42,green,,,,,,,,,,,,,,,,,0,40,40,40,,,,,,,,,,,,,,,,,,,,,,,,,,,,,,,,,,,465.79380949999904,None,,,,,,,,,,,,,,,,,,,,,,,,,,,,,,,,,,,,,,,dominik,001,,2019_Aug_26_1436,MTEC_paradigm,3.1.3,148.16351323223356,
43,green,,,,,,,,,,,,,,,,,0,41,41,41,,,,,,,,,,,,,,,,,,,,,,,,,,,,,,,,,,,466.7933152000187,None,,,,,,,,,,,,,,,,,,,,,,,,,,,,,,,,,,,,,,,dominik,001,,2019_Aug_26_1436,MTEC_paradigm,3.1.3,148.16351323223356,
44,green,,,,,,,,,,,,,,,,,0,42,42,42,,,,,,,,,,,,,,,,,,,,,,,,,,,,,,,,,,,467.7937832000025,None,,,,,,,,,,,,,,,,,,,,,,,,,,,,,,,,,,,,,,,dominik,001,,2019_Aug_26_1436,MTEC_paradigm,3.1.3,148.16351323223356,
45,green,,,,,,,,,,,,,,,,,0,43,43,43,,,,,,,,,,,,,,,,,,,,,,,,,,,,,,,,,,,468.79334560001735,None,,,,,,,,,,,,,,,,,,,,,,,,,,,,,,,,,,,,,,,dominik,001,,2019_Aug_26_1436,MTEC_paradigm,3.1.3,148.16351323223356,
46,green,,,,,,,,,,,,,,,,,0,44,44,44,,,,,,,,,,,,,,,,,,,,,,,,,,,,,,,,,,,469.7931382000097,None,,,,,,,,,,,,,,,,,,,,,,,,,,,,,,,,,,,,,,,dominik,001,,2019_Aug_26_1436,MTEC_paradigm,3.1.3,148.16351323223356,
47,green,,,,,,,,,,,,,,,,,0,45,45,45,,,,,,,,,,,,,,,,,,,,,,,,,,,,,,,,,,,470.7933462999936,None,,,,,,,,,,,,,,,,,,,,,,,,,,,,,,,,,,,,,,,dominik,001,,2019_Aug_26_1436,MTEC_paradigm,3.1.3,148.16351323223356,
48,green,,,,,,,,,,,,,,,,,0,46,46,46,,,,,,,,,,,,,,,,,,,,,,,,,,,,,,,,,,,471.79457299999194,None,,,,,,,,,,,,,,,,,,,,,,,,,,,,,,,,,,,,,,,dominik,001,,2019_Aug_26_1436,MTEC_paradigm,3.1.3,148.16351323223356,
49,green,,,,,,,,,,,,,,,,,0,47,47,47,,,,,,,,,,,,,,,,,,,,,,,,,,,,,,,,,,,472.7893597999937,None,,,,,,,,,,,,,,,,,,,,,,,,,,,,,,,,,,,,,,,dominik,001,,2019_Aug_26_1436,MTEC_paradigm,3.1.3,148.16351323223356,
50,green,,,,,,,,,,,,,,,,,0,48,48,48,,,,,,,,,,,,,,,,,,,,,,,,,,,,,,,,,,,473.78581689999555,474.2855108999938,,,,,,,,,,,,,,,,,,,,,,,,,,,,,,,,,,,,,,,dominik,001,,2019_Aug_26_1436,MTEC_paradigm,3.1.3,148.16351323223356,
51,green,,,,,,,,,,,,,,,,,0,49,49,49,,,,,,,,,,,,,,,,,,,,,,,,,,,,,,,,,,,474.7882704999938,475.2878395000007,,,,,,,,,,,,,,,,,,,,,,,,,,,,,,,,,,,,,,,dominik,001,,2019_Aug_26_1436,MTEC_paradigm,3.1.3,148.16351323223356,
52,green,,,,,,,,,,,,,,,,,0,50,50,50,,,,,,,,,,,,,,,,,,,,,,,,,,,,,,,,,,,475.7949697000149,None,,,,,,,,,,,,,,,,,,,,,,,,,,,,,,,,,,,,,,,dominik,001,,2019_Aug_26_1436,MTEC_paradigm,3.1.3,148.16351323223356,
53,green,,,,,,,,,,,,,,,,,0,51,51,51,,,,,,,,,,,,,,,,,,,,,,,,,,,,,,,,,,,476.7948859000171,None,,,,,,,,,,,,,,,,,,,,,,,,,,,,,,,,,,,,,,,dominik,001,,2019_Aug_26_1436,MTEC_paradigm,3.1.3,148.16351323223356,
54,green,,,,,,,,,,,,,,,,,0,52,52,52,,,,,,,,,,,,,,,,,,,,,,,,,,,,,,,,,,,477.78914229999646,478.28873279999243,,,,,,,,,,,,,,,,,,,,,,,,,,,,,,,,,,,,,,,dominik,001,,2019_Aug_26_1436,MTEC_paradigm,3.1.3,148.16351323223356,
55,green,,,,,,,,,,,,,,,,,0,53,53,53,,,,,,,,,,,,,,,,,,,,,,,,,,,,,,,,,,,478.7899085000099,None,,,,,,,,,,,,,,,,,,,,,,,,,,,,,,,,,,,,,,,dominik,001,,2019_Aug_26_1436,MTEC_paradigm,3.1.3,148.16351323223356,
56,green,,,,,,,,,,,,,,,,,0,54,54,54,,,,,,,,,,,,,,,,,,,,,,,,,,,,,,,,,,,479.7895424000162,None,,,,,,,,,,,,,,,,,,,,,,,,,,,,,,,,,,,,,,,dominik,001,,2019_Aug_26_1436,MTEC_paradigm,3.1.3,148.16351323223356,
57,green,,,,,,,,,,,,,,,,,0,55,55,55,,,,,,,,,,,,,,,,,,,,,,,,,,,,,,,,,,,480.79029360000277,None,,,,,,,,,,,,,,,,,,,,,,,,,,,,,,,,,,,,,,,dominik,001,,2019_Aug_26_1436,MTEC_paradigm,3.1.3,148.16351323223356,
58,green,,,,,,,,,,,,,,,,,0,56,56,56,,,,,,,,,,,,,,,,,,,,,,,,,,,,,,,,,,,481.7915222000156,None,,,,,,,,,,,,,,,,,,,,,,,,,,,,,,,,,,,,,,,dominik,001,,2019_Aug_26_1436,MTEC_paradigm,3.1.3,148.16351323223356,
59,green,,,,,,,,,,,,,,,,,0,57,57,57,,,,,,,,,,,,,,,,,,,,,,,,,,,,,,,,,,,482.79111640001065,None,,,,,,,,,,,,,,,,,,,,,,,,,,,,,,,,,,,,,,,dominik,001,,2019_Aug_26_1436,MTEC_paradigm,3.1.3,148.16351323223356,
60,green,,,,,,,,,,,,,,,,,0,58,58,58,,,,,,,,,,,,,,,,,,,,,,,,,,,,,,,,,,,483.78739770001266,484.2872239999997,,,,,,,,,,,,,,,,,,,,,,,,,,,,,,,,,,,,,,,dominik,001,,2019_Aug_26_1436,MTEC_paradigm,3.1.3,148.16351323223356,
61,green,,,,,,,,,,,,,,,,,0,59,59,59,,,,,,,,,,,,,,,,,,,,,,,,,,,,,,,,,,,484.79139190001297,None,,,,,,,,,,,,,,,,,,,,,,,,,,,,,,,,,,,,,,,dominik,001,,2019_Aug_26_1436,MTEC_paradigm,3.1.3,148.16351323223356,
62,green,,,,,,,,,,,,,,,,,0,60,60,60,,,,,,,,,,,,,,,,,,,,,,,,,,,,,,,,,,,485.789348899998,None,,,,,,,,,,,,,,,,,,,,,,,,,,,,,,,,,,,,,,,dominik,001,,2019_Aug_26_1436,MTEC_paradigm,3.1.3,148.16351323223356,
63,green,,,,,,,,,,,,,,,,,0,61,61,61,,,,,,,,,,,,,,,,,,,,,,,,,,,,,,,,,,,486.7865107000107,487.2866018000059,,,,,,,,,,,,,,,,,,,,,,,,,,,,,,,,,,,,,,,dominik,001,,2019_Aug_26_1436,MTEC_paradigm,3.1.3,148.16351323223356,
64,green,,,,,,,,,,,,,,,,,0,62,62,62,,,,,,,,,,,,,,,,,,,,,,,,,,,,,,,,,,,487.78850660001626,488.28820500001893,,,,,,,,,,,,,,,,,,,,,,,,,,,,,,,,,,,,,,,dominik,001,,2019_Aug_26_1436,MTEC_paradigm,3.1.3,148.16351323223356,
65,green,,,,,,,,,,,,,,,,,0,63,63,63,,,,,,,,,,,,,,,,,,,,,,,,,,,,,,,,,,,488.79525710002054,None,,,,,,,,,,,,,,,,,,,,,,,,,,,,,,,,,,,,,,,dominik,001,,2019_Aug_26_1436,MTEC_paradigm,3.1.3,148.16351323223356,
66,green,,,,,,,,,,,,,,,,,0,64,64,64,,,,,,,,,,,,,,,,,,,,,,,,,,,,,,,,,,,489.7949160000135,None,,,,,,,,,,,,,,,,,,,,,,,,,,,,,,,,,,,,,,,dominik,001,,2019_Aug_26_1436,MTEC_paradigm,3.1.3,148.16351323223356,
67,green,,,,,,,,,,,,,,,,,0,65,65,65,,,,,,,,,,,,,,,,,,,,,,,,,,,,,,,,,,,490.7889586999954,None,,,,,,,,,,,,,,,,,,,,,,,,,,,,,,,,,,,,,,,dominik,001,,2019_Aug_26_1436,MTEC_paradigm,3.1.3,148.16351323223356,
68,green,,,,,,,,,,,,,,,,,0,66,66,66,,,,,,,,,,,,,,,,,,,,,,,,,,,,,,,,,,,491.7886911999958,None,,,,,,,,,,,,,,,,,,,,,,,,,,,,,,,,,,,,,,,dominik,001,,2019_Aug_26_1436,MTEC_paradigm,3.1.3,148.16351323223356,
69,green,,,,,,,,,,,,,,,,,0,67,67,67,,,,,,,,,,,,,,,,,,,,,,,,,,,,,,,,,,,492.7880615000031,493.2877376000106,,,,,,,,,,,,,,,,,,,,,,,,,,,,,,,,,,,,,,,dominik,001,,2019_Aug_26_1436,MTEC_paradigm,3.1.3,148.16351323223356,
70,green,,,,,,,,,,,,,,,,,0,68,68,68,,,,,,,,,,,,,,,,,,,,,,,,,,,,,,,,,,,493.78943340000114,None,,,,,,,,,,,,,,,,,,,,,,,,,,,,,,,,,,,,,,,dominik,001,,2019_Aug_26_1436,MTEC_paradigm,3.1.3,148.16351323223356,
71,green,,,,,,,,,,,,,,,,,0,69,69,69,,,,,,,,,,,,,,,,,,,,,,,,,,,,,,,,,,,494.78932680000435,None,,,,,,,,,,,,,,,,,,,,,,,,,,,,,,,,,,,,,,,dominik,001,,2019_Aug_26_1436,MTEC_paradigm,3.1.3,148.16351323223356,
72,green,,,,,,,,,,,,,,,,,0,70,70,70,,,,,,,,,,,,,,,,,,,,,,,,,,,,,,,,,,,495.7859449000098,496.2856214000203,,,,,,,,,,,,,,,,,,,,,,,,,,,,,,,,,,,,,,,dominik,001,,2019_Aug_26_1436,MTEC_paradigm,3.1.3,148.16351323223356,
73,green,,,,,,,,,,,,,,,,,0,71,71,71,,,,,,,,,,,,,,,,,,,,,,,,,,,,,,,,,,,496.7926948000095,None,,,,,,,,,,,,,,,,,,,,,,,,,,,,,,,,,,,,,,,dominik,001,,2019_Aug_26_1436,MTEC_paradigm,3.1.3,148.16351323223356,
74,green,,,,,,,,,,,,,,,,,0,72,72,72,,,,,,,,,,,,,,,,,,,,,,,,,,,,,,,,,,,497.7925928000186,None,,,,,,,,,,,,,,,,,,,,,,,,,,,,,,,,,,,,,,,dominik,001,,2019_Aug_26_1436,MTEC_paradigm,3.1.3,148.16351323223356,
75,green,,,,,,,,,,,,,,,,,0,73,73,73,,,,,,,,,,,,,,,,,,,,,,,,,,,,,,,,,,,498.7904957999999,None,,,,,,,,,,,,,,,,,,,,,,,,,,,,,,,,,,,,,,,dominik,001,,2019_Aug_26_1436,MTEC_paradigm,3.1.3,148.16351323223356,
76,green,,,,,,,,,,,,,,,,,0,74,74,74,,,,,,,,,,,,,,,,,,,,,,,,,,,,,,,,,,,499.7878120999958,500.2875262000016,,,,,,,,,,,,,,,,,,,,,,,,,,,,,,,,,,,,,,,dominik,001,,2019_Aug_26_1436,MTEC_paradigm,3.1.3,148.16351323223356,
77,green,,,,,,,,,,,,,,,,,0,75,75,75,,,,,,,,,,,,,,,,,,,,,,,,,,,,,,,,,,,500.79422860001796,None,,,,,,,,,,,,,,,,,,,,,,,,,,,,,,,,,,,,,,,dominik,001,,2019_Aug_26_1436,MTEC_paradigm,3.1.3,148.16351323223356,
78,green,,,,,,,,,,,,,,,,,0,76,76,76,,,,,,,,,,,,,,,,,,,,,,,,,,,,,,,,,,,501.79402090000804,None,,,,,,,,,,,,,,,,,,,,,,,,,,,,,,,,,,,,,,,dominik,001,,2019_Aug_26_1436,MTEC_paradigm,3.1.3,148.16351323223356,
79,green,,,,,,,,,,,,,,,,,0,77,77,77,,,,,,,,,,,,,,,,,,,,,,,,,,,,,,,,,,,502.79390799999237,None,,,,,,,,,,,,,,,,,,,,,,,,,,,,,,,,,,,,,,,dominik,001,,2019_Aug_26_1436,MTEC_paradigm,3.1.3,148.16351323223356,
80,green,,,,,,,,,,,,,,,,,0,78,78,78,,,,,,,,,,,,,,,,,,,,,,,,,,,,,,,,,,,503.7938670000003,None,,,,,,,,,,,,,,,,,,,,,,,,,,,,,,,,,,,,,,,dominik,001,,2019_Aug_26_1436,MTEC_paradigm,3.1.3,148.16351323223356,
81,green,,,,,,,,,,,,,,,,,0,79,79,79,,,,,,,,,,,,,,,,,,,,,,,,,,,,,,,,,,,504.7939155000204,None,,,,,,,,,,,,,,,,,,,,,,,,,,,,,,,,,,,,,,,dominik,001,,2019_Aug_26_1436,MTEC_paradigm,3.1.3,148.16351323223356,
82,green,,,,,,,,,,,,,,,,,0,80,80,80,,,,,,,,,,,,,,,,,,,,,,,,,,,,,,,,,,,505.7937855999917,None,,,,,,,,,,,,,,,,,,,,,,,,,,,,,,,,,,,,,,,dominik,001,,2019_Aug_26_1436,MTEC_paradigm,3.1.3,148.16351323223356,
83,green,,,,,,,,,,,,,,,,,0,81,81,81,,,,,,,,,,,,,,,,,,,,,,,,,,,,,,,,,,,506.7940745000087,None,,,,,,,,,,,,,,,,,,,,,,,,,,,,,,,,,,,,,,,dominik,001,,2019_Aug_26_1436,MTEC_paradigm,3.1.3,148.16351323223356,
84,green,,,,,,,,,,,,,,,,,0,82,82,82,,,,,,,,,,,,,,,,,,,,,,,,,,,,,,,,,,,507.79159559999243,None,,,,,,,,,,,,,,,,,,,,,,,,,,,,,,,,,,,,,,,dominik,001,,2019_Aug_26_1436,MTEC_paradigm,3.1.3,148.16351323223356,
85,green,,,,,,,,,,,,,,,,,0,83,83,83,,,,,,,,,,,,,,,,,,,,,,,,,,,,,,,,,,,508.78635999999824,509.28614750001,,,,,,,,,,,,,,,,,,,,,,,,,,,,,,,,,,,,,,,dominik,001,,2019_Aug_26_1436,MTEC_paradigm,3.1.3,148.16351323223356,
86,green,,,,,,,,,,,,,,,,,0,84,84,84,,,,,,,,,,,,,,,,,,,,,,,,,,,,,,,,,,,509.79429310001433,None,,,,,,,,,,,,,,,,,,,,,,,,,,,,,,,,,,,,,,,dominik,001,,2019_Aug_26_1436,MTEC_paradigm,3.1.3,148.16351323223356,
87,green,,,,,,,,,,,,,,,,,0,85,85,85,,,,,,,,,,,,,,,,,,,,,,,,,,,,,,,,,,,510.793788400013,None,,,,,,,,,,,,,,,,,,,,,,,,,,,,,,,,,,,,,,,dominik,001,,2019_Aug_26_1436,MTEC_paradigm,3.1.3,148.16351323223356,
88,green,,,,,,,,,,,,,,,,,0,86,86,86,,,,,,,,,,,,,,,,,,,,,,,,,,,,,,,,,,,511.79397120000795,None,,,,,,,,,,,,,,,,,,,,,,,,,,,,,,,,,,,,,,,dominik,001,,2019_Aug_26_1436,MTEC_paradigm,3.1.3,148.16351323223356,
89,green,,,,,,,,,,,,,,,,,0,87,87,87,,,,,,,,,,,,,,,,,,,,,,,,,,,,,,,,,,,512.7950323999976,None,,,,,,,,,,,,,,,,,,,,,,,,,,,,,,,,,,,,,,,dominik,001,,2019_Aug_26_1436,MTEC_paradigm,3.1.3,148.16351323223356,
90,green,,,,,,,,,,,,,,,,,0,88,88,88,,,,,,,,,,,,,,,,,,,,,,,,,,,,,,,,,,,513.7948528999987,None,,,,,,,,,,,,,,,,,,,,,,,,,,,,,,,,,,,,,,,dominik,001,,2019_Aug_26_1436,MTEC_paradigm,3.1.3,148.16351323223356,
91,green,,,,,,,,,,,,,,,,,0,89,89,89,,,,,,,,,,,,,,,,,,,,,,,,,,,,,,,,,,,514.7957162999955,None,,,,,,,,,,,,,,,,,,,,,,,,,,,,,,,,,,,,,,,dominik,001,,2019_Aug_26_1436,MTEC_paradigm,3.1.3,148.16351323223356,
92,green,,,,,,,,,,,,,,,,,0,90,90,90,,,,,,,,,,,,,,,,,,,,,,,,,,,,,,,,,,,515.7900271000108,None,,,,,,,,,,,,,,,,,,,,,,,,,,,,,,,,,,,,,,,dominik,001,,2019_Aug_26_1436,MTEC_paradigm,3.1.3,148.16351323223356,
93,green,,,,,,,,,,,,,,,,,0,91,91,91,,,,,,,,,,,,,,,,,,,,,,,,,,,,,,,,,,,516.7854359000048,517.2852780999965,,,,,,,,,,,,,,,,,,,,,,,,,,,,,,,,,,,,,,,dominik,001,,2019_Aug_26_1436,MTEC_paradigm,3.1.3,148.16351323223356,
94,green,,,,,,,,,,,,,,,,,0,92,92,92,,,,,,,,,,,,,,,,,,,,,,,,,,,,,,,,,,,517.7920311999915,None,,,,,,,,,,,,,,,,,,,,,,,,,,,,,,,,,,,,,,,dominik,001,,2019_Aug_26_1436,MTEC_paradigm,3.1.3,148.16351323223356,
95,green,,,,,,,,,,,,,,,,,0,93,93,93,,,,,,,,,,,,,,,,,,,,,,,,,,,,,,,,,,,518.7890754000109,None,,,,,,,,,,,,,,,,,,,,,,,,,,,,,,,,,,,,,,,dominik,001,,2019_Aug_26_1436,MTEC_paradigm,3.1.3,148.16351323223356,
96,green,,,,,,,,,,,,,,,,,0,94,94,94,,,,,,,,,,,,,,,,,,,,,,,,,,,,,,,,,,,519.7902316999971,None,,,,,,,,,,,,,,,,,,,,,,,,,,,,,,,,,,,,,,,dominik,001,,2019_Aug_26_1436,MTEC_paradigm,3.1.3,148.16351323223356,
97,green,,,,,,,,,,,,,,,,,0,95,95,95,,,,,,,,,,,,,,,,,,,,,,,,,,,,,,,,,,,520.7896734999958,None,,,,,,,,,,,,,,,,,,,,,,,,,,,,,,,,,,,,,,,dominik,001,,2019_Aug_26_1436,MTEC_paradigm,3.1.3,148.16351323223356,
98,green,,,,,,,,,,,,,,,,,0,96,96,96,,,,,,,,,,,,,,,,,,,,,,,,,,,,,,,,,,,521.7896505999961,None,,,,,,,,,,,,,,,,,,,,,,,,,,,,,,,,,,,,,,,dominik,001,,2019_Aug_26_1436,MTEC_paradigm,3.1.3,148.16351323223356,
99,green,,,,,,,,,,,,,,,,,0,97,97,97,,,,,,,,,,,,,,,,,,,,,,,,,,,,,,,,,,,522.7891907000158,None,,,,,,,,,,,,,,,,,,,,,,,,,,,,,,,,,,,,,,,dominik,001,,2019_Aug_26_1436,MTEC_paradigm,3.1.3,148.16351323223356,
100,green,,,,,,,,,,,,,,,,,0,98,98,98,,,,,,,,,,,,,,,,,,,,,,,,,,,,,,,,,,,523.7888942999998,None,,,,,,,,,,,,,,,,,,,,,,,,,,,,,,,,,,,,,,,dominik,001,,2019_Aug_26_1436,MTEC_paradigm,3.1.3,148.16351323223356,
101,green,,,,,,,,,,,,,,,,,0,99,99,99,,,,,,,,,,,,,,,,,,,,,,,,,,,,,,,,,,,524.7909263000183,None,,,,,,,,,,,,,,,,,,,,,,,,,,,,,,,,,,,,,,,dominik,001,,2019_Aug_26_1436,MTEC_paradigm,3.1.3,148.16351323223356,
102,green,,,,,,,,,,,,,,,,,0,100,100,100,,,,,,,,,,,,,,,,,,,,,,,,,,,,,,,,,,,525.7862771000073,526.2859399000008,,,,,,,,,,,,,,,,,,,,,,,,,,,,,,,,,,,,,,,dominik,001,,2019_Aug_26_1436,MTEC_paradigm,3.1.3,148.16351323223356,
103,green,,,,,,,,,,,,,,,,,0,101,101,101,,,,,,,,,,,,,,,,,,,,,,,,,,,,,,,,,,,526.7942325000186,None,,,,,,,,,,,,,,,,,,,,,,,,,,,,,,,,,,,,,,,dominik,001,,2019_Aug_26_1436,MTEC_paradigm,3.1.3,148.16351323223356,
104,green,,,,,,,,,,,,,,,,,0,102,102,102,,,,,,,,,,,,,,,,,,,,,,,,,,,,,,,,,,,527.7942926000105,None,,,,,,,,,,,,,,,,,,,,,,,,,,,,,,,,,,,,,,,dominik,001,,2019_Aug_26_1436,MTEC_paradigm,3.1.3,148.16351323223356,
105,green,,,,,,,,,,,,,,,,,0,103,103,103,,,,,,,,,,,,,,,,,,,,,,,,,,,,,,,,,,,528.7938399999985,None,,,,,,,,,,,,,,,,,,,,,,,,,,,,,,,,,,,,,,,dominik,001,,2019_Aug_26_1436,MTEC_paradigm,3.1.3,148.16351323223356,
106,green,,,,,,,,,,,,,,,,,0,104,104,104,,,,,,,,,,,,,,,,,,,,,,,,,,,,,,,,,,,529.7910502000013,None,,,,,,,,,,,,,,,,,,,,,,,,,,,,,,,,,,,,,,,dominik,001,,2019_Aug_26_1436,MTEC_paradigm,3.1.3,148.16351323223356,
107,green,,,,,,,,,,,,,,,,,0,105,105,105,,,,,,,,,,,,,,,,,,,,,,,,,,,,,,,,,,,530.7917499000032,None,,,,,,,,,,,,,,,,,,,,,,,,,,,,,,,,,,,,,,,dominik,001,,2019_Aug_26_1436,MTEC_paradigm,3.1.3,148.16351323223356,
108,green,,,,,,,,,,,,,,,,,0,106,106,106,,,,,,,,,,,,,,,,,,,,,,,,,,,,,,,,,,,531.7913566000061,None,,,,,,,,,,,,,,,,,,,,,,,,,,,,,,,,,,,,,,,dominik,001,,2019_Aug_26_1436,MTEC_paradigm,3.1.3,148.16351323223356,
109,green,,,,,,,,,,,,,,,,,0,107,107,107,,,,,,,,,,,,,,,,,,,,,,,,,,,,,,,,,,,532.7922536999977,None,,,,,,,,,,,,,,,,,,,,,,,,,,,,,,,,,,,,,,,dominik,001,,2019_Aug_26_1436,MTEC_paradigm,3.1.3,148.16351323223356,
110,green,,,,,,,,,,,,,,,,,0,108,108,108,,,,,,,,,,,,,,,,,,,,,,,,,,,,,,,,,,,533.7897593000089,None,,,,,,,,,,,,,,,,,,,,,,,,,,,,,,,,,,,,,,,dominik,001,,2019_Aug_26_1436,MTEC_paradigm,3.1.3,148.16351323223356,
111,green,,,,,,,,,,,,,,,,,0,109,109,109,,,,,,,,,,,,,,,,,,,,,,,,,,,,,,,,,,,534.7912399000197,None,,,,,,,,,,,,,,,,,,,,,,,,,,,,,,,,,,,,,,,dominik,001,,2019_Aug_26_1436,MTEC_paradigm,3.1.3,148.16351323223356,
112,green,,,,,,,,,,,,,,,,,0,110,110,110,,,,,,,,,,,,,,,,,,,,,,,,,,,,,,,,,,,535.7862201000098,536.2858316000202,,,,,,,,,,,,,,,,,,,,,,,,,,,,,,,,,,,,,,,dominik,001,,2019_Aug_26_1436,MTEC_paradigm,3.1.3,148.16351323223356,
113,green,,,,,,,,,,,,,,,,,0,111,111,111,,,,,,,,,,,,,,,,,,,,,,,,,,,,,,,,,,,536.7922555000114,None,,,,,,,,,,,,,,,,,,,,,,,,,,,,,,,,,,,,,,,dominik,001,,2019_Aug_26_1436,MTEC_paradigm,3.1.3,148.16351323223356,
114,green,,,,,,,,,,,,,,,,,0,112,112,112,,,,,,,,,,,,,,,,,,,,,,,,,,,,,,,,,,,537.7923983999935,None,,,,,,,,,,,,,,,,,,,,,,,,,,,,,,,,,,,,,,,dominik,001,,2019_Aug_26_1436,MTEC_paradigm,3.1.3,148.16351323223356,
115,green,,,,,,,,,,,,,,,,,0,113,113,113,,,,,,,,,,,,,,,,,,,,,,,,,,,,,,,,,,,538.7920721000119,None,,,,,,,,,,,,,,,,,,,,,,,,,,,,,,,,,,,,,,,dominik,001,,2019_Aug_26_1436,MTEC_paradigm,3.1.3,148.16351323223356,
116,green,,,,,,,,,,,,,,,,,0,114,114,114,,,,,,,,,,,,,,,,,,,,,,,,,,,,,,,,,,,539.7923523999925,None,,,,,,,,,,,,,,,,,,,,,,,,,,,,,,,,,,,,,,,dominik,001,,2019_Aug_26_1436,MTEC_paradigm,3.1.3,148.16351323223356,
117,green,,,,,,,,,,,,,,,,,0,115,115,115,,,,,,,,,,,,,,,,,,,,,,,,,,,,,,,,,,,540.7917601999943,None,,,,,,,,,,,,,,,,,,,,,,,,,,,,,,,,,,,,,,,dominik,001,,2019_Aug_26_1436,MTEC_paradigm,3.1.3,148.16351323223356,
118,green,,,,,,,,,,,,,,,,,0,116,116,116,,,,,,,,,,,,,,,,,,,,,,,,,,,,,,,,,,,541.7915118999954,None,,,,,,,,,,,,,,,,,,,,,,,,,,,,,,,,,,,,,,,dominik,001,,2019_Aug_26_1436,MTEC_paradigm,3.1.3,148.16351323223356,
119,green,,,,,,,,,,,,,,,,,0,117,117,117,,,,,,,,,,,,,,,,,,,,,,,,,,,,,,,,,,,542.79102840001,None,,,,,,,,,,,,,,,,,,,,,,,,,,,,,,,,,,,,,,,dominik,001,,2019_Aug_26_1436,MTEC_paradigm,3.1.3,148.16351323223356,
120,green,,,,,,,,,,,,,,,,,0,118,118,118,,,,,,,,,,,,,,,,,,,,,,,,,,,,,,,,,,,543.7919760000077,None,,,,,,,,,,,,,,,,,,,,,,,,,,,,,,,,,,,,,,,dominik,001,,2019_Aug_26_1436,MTEC_paradigm,3.1.3,148.16351323223356,
121,green,,,,,,,,,,,,,,,,,0,119,119,119,,,,,,,,,,,,,,,,,,,,,,,,,,,,,,,,,,,544.7920850999944,None,,,,,,,,,,,,,,,,,,,,,,,,,,,,,,,,,,,,,,,dominik,001,,2019_Aug_26_1436,MTEC_paradigm,3.1.3,148.16351323223356,
122,green,,,,,,,,,,,,,,,,,0,120,120,120,,,,,,,,,,,,,,,,,,,,,,,,,,,,,,,,,,,545.7877115000156,546.2873527000193,,,,,,,,,,,,,,,,,,,,,,,,,,,,,,,,,,,,,,,dominik,001,,2019_Aug_26_1436,MTEC_paradigm,3.1.3,148.16351323223356,
123,green,,,,,,,,,,,,,,,,,0,121,121,121,,,,,,,,,,,,,,,,,,,,,,,,,,,,,,,,,,,546.7914464000205,None,,,,,,,,,,,,,,,,,,,,,,,,,,,,,,,,,,,,,,,dominik,001,,2019_Aug_26_1436,MTEC_paradigm,3.1.3,148.16351323223356,
124,green,,,,,,,,,,,,,,,,,0,122,122,122,,,,,,,,,,,,,,,,,,,,,,,,,,,,,,,,,,,547.790448899992,None,,,,,,,,,,,,,,,,,,,,,,,,,,,,,,,,,,,,,,,dominik,001,,2019_Aug_26_1436,MTEC_paradigm,3.1.3,148.16351323223356,
125,green,,,,,,,,,,,,,,,,,0,123,123,123,,,,,,,,,,,,,,,,,,,,,,,,,,,,,,,,,,,548.7880859000143,549.2878818000027,,,,,,,,,,,,,,,,,,,,,,,,,,,,,,,,,,,,,,,dominik,001,,2019_Aug_26_1436,MTEC_paradigm,3.1.3,148.16351323223356,
126,green,,,,,,,,,,,,,,,,,0,124,124,124,,,,,,,,,,,,,,,,,,,,,,,,,,,,,,,,,,,549.7948578000069,None,,,,,,,,,,,,,,,,,,,,,,,,,,,,,,,,,,,,,,,dominik,001,,2019_Aug_26_1436,MTEC_paradigm,3.1.3,148.16351323223356,
127,green,,,,,,,,,,,,,,,,,0,125,125,125,,,,,,,,,,,,,,,,,,,,,,,,,,,,,,,,,,,550.7946777000034,None,,,,,,,,,,,,,,,,,,,,,,,,,,,,,,,,,,,,,,,dominik,001,,2019_Aug_26_1436,MTEC_paradigm,3.1.3,148.16351323223356,
128,green,,,,,,,,,,,,,,,,,0,126,126,126,,,,,,,,,,,,,,,,,,,,,,,,,,,,,,,,,,,551.7949779000191,None,,,,,,,,,,,,,,,,,,,,,,,,,,,,,,,,,,,,,,,dominik,001,,2019_Aug_26_1436,MTEC_paradigm,3.1.3,148.16351323223356,
129,green,,,,,,,,,,,,,,,,,0,127,127,127,,,,,,,,,,,,,,,,,,,,,,,,,,,,,,,,,,,552.7892319000093,None,,,,,,,,,,,,,,,,,,,,,,,,,,,,,,,,,,,,,,,dominik,001,,2019_Aug_26_1436,MTEC_paradigm,3.1.3,148.16351323223356,
130,green,,,,,,,,,,,,,,,,,0,128,128,128,,,,,,,,,,,,,,,,,,,,,,,,,,,,,,,,,,,553.7841775999987,554.2840306000144,,,,,,,,,,,,,,,,,,,,,,,,,,,,,,,,,,,,,,,dominik,001,,2019_Aug_26_1436,MTEC_paradigm,3.1.3,148.16351323223356,
131,green,,,,,,,,,,,,,,,,,0,129,129,129,,,,,,,,,,,,,,,,,,,,,,,,,,,,,,,,,,,554.7905751999933,None,,,,,,,,,,,,,,,,,,,,,,,,,,,,,,,,,,,,,,,dominik,001,,2019_Aug_26_1436,MTEC_paradigm,3.1.3,148.16351323223356,
132,green,,,,,,,,,,,,,,,,,0,130,130,130,,,,,,,,,,,,,,,,,,,,,,,,,,,,,,,,,,,555.7891614999971,None,,,,,,,,,,,,,,,,,,,,,,,,,,,,,,,,,,,,,,,dominik,001,,2019_Aug_26_1436,MTEC_paradigm,3.1.3,148.16351323223356,
133,green,,,,,,,,,,,,,,,,,0,131,131,131,,,,,,,,,,,,,,,,,,,,,,,,,,,,,,,,,,,556.7859458000166,557.285862699995,,,,,,,,,,,,,,,,,,,,,,,,,,,,,,,,,,,,,,,dominik,001,,2019_Aug_26_1436,MTEC_paradigm,3.1.3,148.16351323223356,
134,green,,,,,,,,,,,,,,,,,0,132,132,132,,,,,,,,,,,,,,,,,,,,,,,,,,,,,,,,,,,557.7886411999934,None,,,,,,,,,,,,,,,,,,,,,,,,,,,,,,,,,,,,,,,dominik,001,,2019_Aug_26_1436,MTEC_paradigm,3.1.3,148.16351323223356,
135,green,,,,,,,,,,,,,,,,,0,133,133,133,,,,,,,,,,,,,,,,,,,,,,,,,,,,,,,,,,,558.7881343000045,559.2880011000088,,,,,,,,,,,,,,,,,,,,,,,,,,,,,,,,,,,,,,,dominik,001,,2019_Aug_26_1436,MTEC_paradigm,3.1.3,148.16351323223356,
136,green,,,,,,,,,,,,,,,,,0,134,134,134,,,,,,,,,,,,,,,,,,,,,,,,,,,,,,,,,,,559.7896953000163,None,,,,,,,,,,,,,,,,,,,,,,,,,,,,,,,,,,,,,,,dominik,001,,2019_Aug_26_1436,MTEC_paradigm,3.1.3,148.16351323223356,
137,green,,,,,,,,,,,,,,,,,0,135,135,135,,,,,,,,,,,,,,,,,,,,,,,,,,,,,,,,,,,560.7893864999933,None,,,,,,,,,,,,,,,,,,,,,,,,,,,,,,,,,,,,,,,dominik,001,,2019_Aug_26_1436,MTEC_paradigm,3.1.3,148.16351323223356,
138,green,,,,,,,,,,,,,,,,,0,136,136,136,,,,,,,,,,,,,,,,,,,,,,,,,,,,,,,,,,,561.789308700012,None,,,,,,,,,,,,,,,,,,,,,,,,,,,,,,,,,,,,,,,dominik,001,,2019_Aug_26_1436,MTEC_paradigm,3.1.3,148.16351323223356,
139,green,,,,,,,,,,,,,,,,,0,137,137,137,,,,,,,,,,,,,,,,,,,,,,,,,,,,,,,,,,,562.7891831000161,563.2888445999997,,,,,,,,,,,,,,,,,,,,,,,,,,,,,,,,,,,,,,,dominik,001,,2019_Aug_26_1436,MTEC_paradigm,3.1.3,148.16351323223356,
140,green,,,,,,,,,,,,,,,,,0,138,138,138,,,,,,,,,,,,,,,,,,,,,,,,,,,,,,,,,,,563.7955302000046,None,,,,,,,,,,,,,,,,,,,,,,,,,,,,,,,,,,,,,,,dominik,001,,2019_Aug_26_1436,MTEC_paradigm,3.1.3,148.16351323223356,
141,green,,,,,,,,,,,,,,,,,0,139,139,139,,,,,,,,,,,,,,,,,,,,,,,,,,,,,,,,,,,564.7951480000047,None,,,,,,,,,,,,,,,,,,,,,,,,,,,,,,,,,,,,,,,dominik,001,,2019_Aug_26_1436,MTEC_paradigm,3.1.3,148.16351323223356,
142,green,,,,,,,,,,,,,,,,,0,140,140,140,,,,,,,,,,,,,,,,,,,,,,,,,,,,,,,,,,,565.7933820000035,None,,,,,,,,,,,,,,,,,,,,,,,,,,,,,,,,,,,,,,,dominik,001,,2019_Aug_26_1436,MTEC_paradigm,3.1.3,148.16351323223356,
143,green,,,,,,,,,,,,,,,,,0,141,141,141,,,,,,,,,,,,,,,,,,,,,,,,,,,,,,,,,,,566.791324699996,None,,,,,,,,,,,,,,,,,,,,,,,,,,,,,,,,,,,,,,,dominik,001,,2019_Aug_26_1436,MTEC_paradigm,3.1.3,148.16351323223356,
144,green,,,,,,,,,,,,,,,,,0,142,142,142,,,,,,,,,,,,,,,,,,,,,,,,,,,,,,,,,,,567.7899913000001,None,,,,,,,,,,,,,,,,,,,,,,,,,,,,,,,,,,,,,,,dominik,001,,2019_Aug_26_1436,MTEC_paradigm,3.1.3,148.16351323223356,
145,green,,,,,,,,,,,,,,,,,0,143,143,143,,,,,,,,,,,,,,,,,,,,,,,,,,,,,,,,,,,568.7864594999992,569.2862220999959,,,,,,,,,,,,,,,,,,,,,,,,,,,,,,,,,,,,,,,dominik,001,,2019_Aug_26_1436,MTEC_paradigm,3.1.3,148.16351323223356,
146,green,,,,,,,,,,,,,,,,,0,144,144,144,,,,,,,,,,,,,,,,,,,,,,,,,,,,,,,,,,,569.7934391000017,None,,,,,,,,,,,,,,,,,,,,,,,,,,,,,,,,,,,,,,,dominik,001,,2019_Aug_26_1436,MTEC_paradigm,3.1.3,148.16351323223356,
147,green,,,,,,,,,,,,,,,,,0,145,145,145,,,,,,,,,,,,,,,,,,,,,,,,,,,,,,,,,,,570.7931427000149,None,,,,,,,,,,,,,,,,,,,,,,,,,,,,,,,,,,,,,,,dominik,001,,2019_Aug_26_1436,MTEC_paradigm,3.1.3,148.16351323223356,
148,green,,,,,,,,,,,,,,,,,0,146,146,146,,,,,,,,,,,,,,,,,,,,,,,,,,,,,,,,,,,571.7940170000074,None,,,,,,,,,,,,,,,,,,,,,,,,,,,,,,,,,,,,,,,dominik,001,,2019_Aug_26_1436,MTEC_paradigm,3.1.3,148.16351323223356,
149,green,,,,,,,,,,,,,,,,,0,147,147,147,,,,,,,,,,,,,,,,,,,,,,,,,,,,,,,,,,,572.7938247999991,None,,,,,,,,,,,,,,,,,,,,,,,,,,,,,,,,,,,,,,,dominik,001,,2019_Aug_26_1436,MTEC_paradigm,3.1.3,148.16351323223356,
150,green,,,,,,,,,,,,,,,,,0,148,148,148,,,,,,,,,,,,,,,,,,,,,,,,,,,,,,,,,,,573.7933667000034,None,,,,,,,,,,,,,,,,,,,,,,,,,,,,,,,,,,,,,,,dominik,001,,2019_Aug_26_1436,MTEC_paradigm,3.1.3,148.16351323223356,
151,green,,,,,,,,,,,,,,,,,0,149,149,149,,,,,,,,,,,,,,,,,,,,,,,,,,,,,,,,,,,574.7932744999998,None,,,,,,,,,,,,,,,,,,,,,,,,,,,,,,,,,,,,,,,dominik,001,,2019_Aug_26_1436,MTEC_paradigm,3.1.3,148.16351323223356,
152,green,,,,,,,,,,,,,,,,,0,150,150,150,,,,,,,,,,,,,,,,,,,,,,,,,,,,,,,,,,,575.7932347000169,None,,,,,,,,,,,,,,,,,,,,,,,,,,,,,,,,,,,,,,,dominik,001,,2019_Aug_26_1436,MTEC_paradigm,3.1.3,148.16351323223356,
153,green,,,,,,,,,,,,,,,,,0,151,151,151,,,,,,,,,,,,,,,,,,,,,,,,,,,,,,,,,,,576.7935007000051,None,,,,,,,,,,,,,,,,,,,,,,,,,,,,,,,,,,,,,,,dominik,001,,2019_Aug_26_1436,MTEC_paradigm,3.1.3,148.16351323223356,
154,green,,,,,,,,,,,,,,,,,0,152,152,152,,,,,,,,,,,,,,,,,,,,,,,,,,,,,,,,,,,577.7938270000159,None,,,,,,,,,,,,,,,,,,,,,,,,,,,,,,,,,,,,,,,dominik,001,,2019_Aug_26_1436,MTEC_paradigm,3.1.3,148.16351323223356,
155,green,,,,,,,,,,,,,,,,,0,153,153,153,,,,,,,,,,,,,,,,,,,,,,,,,,,,,,,,,,,578.7893373999977,None,,,,,,,,,,,,,,,,,,,,,,,,,,,,,,,,,,,,,,,dominik,001,,2019_Aug_26_1436,MTEC_paradigm,3.1.3,148.16351323223356,
156,green,,,,,,,,,,,,,,,,,0,154,154,154,,,,,,,,,,,,,,,,,,,,,,,,,,,,,,,,,,,579.7844582000107,580.2841188000166,,,,,,,,,,,,,,,,,,,,,,,,,,,,,,,,,,,,,,,dominik,001,,2019_Aug_26_1436,MTEC_paradigm,3.1.3,148.16351323223356,
157,green,,,,,,,,,,,,,,,,,0,155,155,155,,,,,,,,,,,,,,,,,,,,,,,,,,,,,,,,,,,580.7863419000059,581.285953100014,,,,,,,,,,,,,,,,,,,,,,,,,,,,,,,,,,,,,,,dominik,001,,2019_Aug_26_1436,MTEC_paradigm,3.1.3,148.16351323223356,
158,green,,,,,,,,,,,,,,,,,0,156,156,156,,,,,,,,,,,,,,,,,,,,,,,,,,,,,,,,,,,581.7879656000005,582.2877278999949,,,,,,,,,,,,,,,,,,,,,,,,,,,,,,,,,,,,,,,dominik,001,,2019_Aug_26_1436,MTEC_paradigm,3.1.3,148.16351323223356,
159,green,,,,,,,,,,,,,,,,,0,157,157,157,,,,,,,,,,,,,,,,,,,,,,,,,,,,,,,,,,,582.7948300999997,None,,,,,,,,,,,,,,,,,,,,,,,,,,,,,,,,,,,,,,,dominik,001,,2019_Aug_26_1436,MTEC_paradigm,3.1.3,148.16351323223356,
160,green,,,,,,,,,,,,,,,,,0,158,158,158,,,,,,,,,,,,,,,,,,,,,,,,,,,,,,,,,,,583.7947320000094,None,,,,,,,,,,,,,,,,,,,,,,,,,,,,,,,,,,,,,,,dominik,001,,2019_Aug_26_1436,MTEC_paradigm,3.1.3,148.16351323223356,
161,green,,,,,,,,,,,,,,,,,0,159,159,159,,,,,,,,,,,,,,,,,,,,,,,,,,,,,,,,,,,584.7891802999948,None,,,,,,,,,,,,,,,,,,,,,,,,,,,,,,,,,,,,,,,dominik,001,,2019_Aug_26_1436,MTEC_paradigm,3.1.3,148.16351323223356,
162,green,,,,,,,,,,,,,,,,,0,160,160,160,,,,,,,,,,,,,,,,,,,,,,,,,,,,,,,,,,,585.7893492000003,None,,,,,,,,,,,,,,,,,,,,,,,,,,,,,,,,,,,,,,,dominik,001,,2019_Aug_26_1436,MTEC_paradigm,3.1.3,148.16351323223356,
163,green,,,,,,,,,,,,,,,,,0,161,161,161,,,,,,,,,,,,,,,,,,,,,,,,,,,,,,,,,,,586.7852915000112,587.2850829999952,,,,,,,,,,,,,,,,,,,,,,,,,,,,,,,,,,,,,,,dominik,001,,2019_Aug_26_1436,MTEC_paradigm,3.1.3,148.16351323223356,
164,green,,,,,,,,,,,,,,,,,0,162,162,162,,,,,,,,,,,,,,,,,,,,,,,,,,,,,,,,,,,587.7903848999995,None,,,,,,,,,,,,,,,,,,,,,,,,,,,,,,,,,,,,,,,dominik,001,,2019_Aug_26_1436,MTEC_paradigm,3.1.3,148.16351323223356,
165,green,,,,,,,,,,,,,,,,,0,163,163,163,,,,,,,,,,,,,,,,,,,,,,,,,,,,,,,,,,,588.7896961999941,None,,,,,,,,,,,,,,,,,,,,,,,,,,,,,,,,,,,,,,,dominik,001,,2019_Aug_26_1436,MTEC_paradigm,3.1.3,148.16351323223356,
166,green,,,,,,,,,,,,,,,,,0,164,164,164,,,,,,,,,,,,,,,,,,,,,,,,,,,,,,,,,,,589.7908639000088,None,,,,,,,,,,,,,,,,,,,,,,,,,,,,,,,,,,,,,,,dominik,001,,2019_Aug_26_1436,MTEC_paradigm,3.1.3,148.16351323223356,
167,green,,,,,,,,,,,,,,,,,0,165,165,165,,,,,,,,,,,,,,,,,,,,,,,,,,,,,,,,,,,590.7916613999987,None,,,,,,,,,,,,,,,,,,,,,,,,,,,,,,,,,,,,,,,dominik,001,,2019_Aug_26_1436,MTEC_paradigm,3.1.3,148.16351323223356,
168,green,,,,,,,,,,,,,,,,,0,166,166,166,,,,,,,,,,,,,,,,,,,,,,,,,,,,,,,,,,,591.792174000002,None,,,,,,,,,,,,,,,,,,,,,,,,,,,,,,,,,,,,,,,dominik,001,,2019_Aug_26_1436,MTEC_paradigm,3.1.3,148.16351323223356,
169,green,,,,,,,,,,,,,,,,,0,167,167,167,,,,,,,,,,,,,,,,,,,,,,,,,,,,,,,,,,,592.7921432000003,None,,,,,,,,,,,,,,,,,,,,,,,,,,,,,,,,,,,,,,,dominik,001,,2019_Aug_26_1436,MTEC_paradigm,3.1.3,148.16351323223356,
170,green,,,,,,,,,,,,,,,,,0,168,168,168,,,,,,,,,,,,,,,,,,,,,,,,,,,,,,,,,,,593.7916657000023,None,,,,,,,,,,,,,,,,,,,,,,,,,,,,,,,,,,,,,,,dominik,001,,2019_Aug_26_1436,MTEC_paradigm,3.1.3,148.16351323223356,
171,green,,,,,,,,,,,,,,,,,0,169,169,169,,,,,,,,,,,,,,,,,,,,,,,,,,,,,,,,,,,594.789904300007,None,,,,,,,,,,,,,,,,,,,,,,,,,,,,,,,,,,,,,,,dominik,001,,2019_Aug_26_1436,MTEC_paradigm,3.1.3,148.16351323223356,
172,green,,,,,,,,,,,,,,,,,0,170,170,170,,,,,,,,,,,,,,,,,,,,,,,,,,,,,,,,,,,595.7895154000144,None,,,,,,,,,,,,,,,,,,,,,,,,,,,,,,,,,,,,,,,dominik,001,,2019_Aug_26_1436,MTEC_paradigm,3.1.3,148.16351323223356,
173,green,,,,,,,,,,,,,,,,,0,171,171,171,,,,,,,,,,,,,,,,,,,,,,,,,,,,,,,,,,,596.7895392999926,None,,,,,,,,,,,,,,,,,,,,,,,,,,,,,,,,,,,,,,,dominik,001,,2019_Aug_26_1436,MTEC_paradigm,3.1.3,148.16351323223356,
174,green,,,,,,,,,,,,,,,,,0,172,172,172,,,,,,,,,,,,,,,,,,,,,,,,,,,,,,,,,,,597.784564600006,598.2842579999997,,,,,,,,,,,,,,,,,,,,,,,,,,,,,,,,,,,,,,,dominik,001,,2019_Aug_26_1436,MTEC_paradigm,3.1.3,148.16351323223356,
175,green,,,,,,,,,,,,,,,,,0,173,173,173,,,,,,,,,,,,,,,,,,,,,,,,,,,,,,,,,,,598.7917638999934,None,,,,,,,,,,,,,,,,,,,,,,,,,,,,,,,,,,,,,,,dominik,001,,2019_Aug_26_1436,MTEC_paradigm,3.1.3,148.16351323223356,
176,green,,,,,,,,,,,,,,,,,0,174,174,174,,,,,,,,,,,,,,,,,,,,,,,,,,,,,,,,,,,599.7915880999935,None,,,,,,,,,,,,,,,,,,,,,,,,,,,,,,,,,,,,,,,dominik,001,,2019_Aug_26_1436,MTEC_paradigm,3.1.3,148.16351323223356,
177,green,,,,,,,,,,,,,,,,,0,175,175,175,,,,,,,,,,,,,,,,,,,,,,,,,,,,,,,,,,,600.7909974000067,None,,,,,,,,,,,,,,,,,,,,,,,,,,,,,,,,,,,,,,,dominik,001,,2019_Aug_26_1436,MTEC_paradigm,3.1.3,148.16351323223356,
178,green,,,,,,,,,,,,,,,,,0,176,176,176,,,,,,,,,,,,,,,,,,,,,,,,,,,,,,,,,,,601.7925051999919,None,,,,,,,,,,,,,,,,,,,,,,,,,,,,,,,,,,,,,,,dominik,001,,2019_Aug_26_1436,MTEC_paradigm,3.1.3,148.16351323223356,
179,green,,,,,,,,,,,,,,,,,0,177,177,177,,,,,,,,,,,,,,,,,,,,,,,,,,,,,,,,,,,602.7939685000165,None,,,,,,,,,,,,,,,,,,,,,,,,,,,,,,,,,,,,,,,dominik,001,,2019_Aug_26_1436,MTEC_paradigm,3.1.3,148.16351323223356,
180,yellow,,,,,,,,,,,,,,,,,0,178,178,178,,,,,,,,,,,,,,,,,,,,,,,,,,,,,,,,,,,603.7891947000171,None,,,,,,,,,,,,,,,,,,,,,,,,,,,,,,,,,,,,,,,dominik,001,,2019_Aug_26_1436,MTEC_paradigm,3.1.3,148.16351323223356,
181,yellow,,,,,,,,,,,,,,,,,0,179,179,179,,,,,,,,,,,,,,,,,,,,,,,,,,,,,,,,,,,604.7880361000134,605.2877270000172,,,,,,,,,,,,,,,,,,,,,,,,,,,,,,,,,,,,,,,dominik,001,,2019_Aug_26_1436,MTEC_paradigm,3.1.3,148.16351323223356,
182,yellow,,,,,,,,,,,,,,,,,0,180,180,180,,,,,,,,,,,,,,,,,,,,,,,,,,,,,,,,,,,605.7932009999931,None,,,,,,,,,,,,,,,,,,,,,,,,,,,,,,,,,,,,,,,dominik,001,,2019_Aug_26_1436,MTEC_paradigm,3.1.3,148.16351323223356,
183,yellow,,,,,,,,,,,,,,,,,0,181,181,181,,,,,,,,,,,,,,,,,,,,,,,,,,,,,,,,,,,606.79459580002,None,,,,,,,,,,,,,,,,,,,,,,,,,,,,,,,,,,,,,,,dominik,001,,2019_Aug_26_1436,MTEC_paradigm,3.1.3,148.16351323223356,
184,yellow,,,,,,,,,,,,,,,,,0,182,182,182,,,,,,,,,,,,,,,,,,,,,,,,,,,,,,,,,,,607.7931114000094,None,,,,,,,,,,,,,,,,,,,,,,,,,,,,,,,,,,,,,,,dominik,001,,2019_Aug_26_1436,MTEC_paradigm,3.1.3,148.16351323223356,
185,yellow,,,,,,,,,,,,,,,,,0,183,183,183,,,,,,,,,,,,,,,,,,,,,,,,,,,,,,,,,,,608.7929276000068,None,,,,,,,,,,,,,,,,,,,,,,,,,,,,,,,,,,,,,,,dominik,001,,2019_Aug_26_1436,MTEC_paradigm,3.1.3,148.16351323223356,
186,yellow,,,,,,,,,,,,,,,,,0,184,184,184,,,,,,,,,,,,,,,,,,,,,,,,,,,,,,,,,,,609.7939848999958,None,,,,,,,,,,,,,,,,,,,,,,,,,,,,,,,,,,,,,,,dominik,001,,2019_Aug_26_1436,MTEC_paradigm,3.1.3,148.16351323223356,
187,yellow,,,,,,,,,,,,,,,,,0,185,185,185,,,,,,,,,,,,,,,,,,,,,,,,,,,,,,,,,,,610.7938126999943,None,,,,,,,,,,,,,,,,,,,,,,,,,,,,,,,,,,,,,,,dominik,001,,2019_Aug_26_1436,MTEC_paradigm,3.1.3,148.16351323223356,
188,yellow,,,,,,,,,,,,,,,,,0,186,186,186,,,,,,,,,,,,,,,,,,,,,,,,,,,,,,,,,,,611.793899900018,None,,,,,,,,,,,,,,,,,,,,,,,,,,,,,,,,,,,,,,,dominik,001,,2019_Aug_26_1436,MTEC_paradigm,3.1.3,148.16351323223356,
189,yellow,,,,,,,,,,,,,,,,,0,187,187,187,,,,,,,,,,,,,,,,,,,,,,,,,,,,,,,,,,,612.7938196000177,None,,,,,,,,,,,,,,,,,,,,,,,,,,,,,,,,,,,,,,,dominik,001,,2019_Aug_26_1436,MTEC_paradigm,3.1.3,148.16351323223356,
190,yellow,,,,,,,,,,,,,,,,,0,188,188,188,,,,,,,,,,,,,,,,,,,,,,,,,,,,,,,,,,,613.7932925000205,None,,,,,,,,,,,,,,,,,,,,,,,,,,,,,,,,,,,,,,,dominik,001,,2019_Aug_26_1436,MTEC_paradigm,3.1.3,148.16351323223356,
191,yellow,,,,,,,,,,,,,,,,,0,189,189,189,,,,,,,,,,,,,,,,,,,,,,,,,,,,,,,,,,,614.7932389000198,None,,,,,,,,,,,,,,,,,,,,,,,,,,,,,,,,,,,,,,,dominik,001,,2019_Aug_26_1436,MTEC_paradigm,3.1.3,148.16351323223356,
192,yellow,,,,,,,,,,,,,,,,,0,190,190,190,,,,,,,,,,,,,,,,,,,,,,,,,,,,,,,,,,,615.7885086000024,616.2880809000053,,,,,,,,,,,,,,,,,,,,,,,,,,,,,,,,,,,,,,,dominik,001,,2019_Aug_26_1436,MTEC_paradigm,3.1.3,148.16351323223356,
193,yellow,,,,,,,,,,,,,,,,,0,191,191,191,,,,,,,,,,,,,,,,,,,,,,,,,,,,,,,,,,,616.794515000016,None,,,,,,,,,,,,,,,,,,,,,,,,,,,,,,,,,,,,,,,dominik,001,,2019_Aug_26_1436,MTEC_paradigm,3.1.3,148.16351323223356,
194,yellow,,,,,,,,,,,,,,,,,0,192,192,192,,,,,,,,,,,,,,,,,,,,,,,,,,,,,,,,,,,617.7923489999957,None,,,,,,,,,,,,,,,,,,,,,,,,,,,,,,,,,,,,,,,dominik,001,,2019_Aug_26_1436,MTEC_paradigm,3.1.3,148.16351323223356,
195,yellow,,,,,,,,,,,,,,,,,0,193,193,193,,,,,,,,,,,,,,,,,,,,,,,,,,,,,,,,,,,618.7902982000087,None,,,,,,,,,,,,,,,,,,,,,,,,,,,,,,,,,,,,,,,dominik,001,,2019_Aug_26_1436,MTEC_paradigm,3.1.3,148.16351323223356,
196,yellow,,,,,,,,,,,,,,,,,0,194,194,194,,,,,,,,,,,,,,,,,,,,,,,,,,,,,,,,,,,619.7903418000205,None,,,,,,,,,,,,,,,,,,,,,,,,,,,,,,,,,,,,,,,dominik,001,,2019_Aug_26_1436,MTEC_paradigm,3.1.3,148.16351323223356,
197,yellow,,,,,,,,,,,,,,,,,0,195,195,195,,,,,,,,,,,,,,,,,,,,,,,,,,,,,,,,,,,620.791398100002,None,,,,,,,,,,,,,,,,,,,,,,,,,,,,,,,,,,,,,,,dominik,001,,2019_Aug_26_1436,MTEC_paradigm,3.1.3,148.16351323223356,
198,yellow,,,,,,,,,,,,,,,,,0,196,196,196,,,,,,,,,,,,,,,,,,,,,,,,,,,,,,,,,,,621.7860216000117,622.2857727000082,,,,,,,,,,,,,,,,,,,,,,,,,,,,,,,,,,,,,,,dominik,001,,2019_Aug_26_1436,MTEC_paradigm,3.1.3,148.16351323223356,
199,yellow,,,,,,,,,,,,,,,,,0,197,197,197,,,,,,,,,,,,,,,,,,,,,,,,,,,,,,,,,,,622.7927425999951,None,,,,,,,,,,,,,,,,,,,,,,,,,,,,,,,,,,,,,,,dominik,001,,2019_Aug_26_1436,MTEC_paradigm,3.1.3,148.16351323223356,
200,yellow,,,,,,,,,,,,,,,,,0,198,198,198,,,,,,,,,,,,,,,,,,,,,,,,,,,,,,,,,,,623.7938437999983,None,,,,,,,,,,,,,,,,,,,,,,,,,,,,,,,,,,,,,,,dominik,001,,2019_Aug_26_1436,MTEC_paradigm,3.1.3,148.16351323223356,
201,yellow,,,,,,,,,,,,,,,,,0,199,199,199,,,,,,,,,,,,,,,,,,,,,,,,,,,,,,,,,,,624.7931205000204,None,,,,,,,,,,,,,,,,,,,,,,,,,,,,,,,,,,,,,,,dominik,001,,2019_Aug_26_1436,MTEC_paradigm,3.1.3,148.16351323223356,
202,yellow,,,,,,,,,,,,,,,,,0,200,200,200,,,,,,,,,,,,,,,,,,,,,,,,,,,,,,,,,,,625.7944062000024,None,,,,,,,,,,,,,,,,,,,,,,,,,,,,,,,,,,,,,,,dominik,001,,2019_Aug_26_1436,MTEC_paradigm,3.1.3,148.16351323223356,
203,yellow,,,,,,,,,,,,,,,,,0,201,201,201,,,,,,,,,,,,,,,,,,,,,,,,,,,,,,,,,,,626.7940453000192,None,,,,,,,,,,,,,,,,,,,,,,,,,,,,,,,,,,,,,,,dominik,001,,2019_Aug_26_1436,MTEC_paradigm,3.1.3,148.16351323223356,
204,yellow,,,,,,,,,,,,,,,,,0,202,202,202,,,,,,,,,,,,,,,,,,,,,,,,,,,,,,,,,,,627.7939049999986,None,,,,,,,,,,,,,,,,,,,,,,,,,,,,,,,,,,,,,,,dominik,001,,2019_Aug_26_1436,MTEC_paradigm,3.1.3,148.16351323223356,
205,yellow,,,,,,,,,,,,,,,,,0,203,203,203,,,,,,,,,,,,,,,,,,,,,,,,,,,,,,,,,,,628.7950986000069,None,,,,,,,,,,,,,,,,,,,,,,,,,,,,,,,,,,,,,,,dominik,001,,2019_Aug_26_1436,MTEC_paradigm,3.1.3,148.16351323223356,
206,yellow,,,,,,,,,,,,,,,,,0,204,204,204,,,,,,,,,,,,,,,,,,,,,,,,,,,,,,,,,,,629.7940048000019,None,,,,,,,,,,,,,,,,,,,,,,,,,,,,,,,,,,,,,,,dominik,001,,2019_Aug_26_1436,MTEC_paradigm,3.1.3,148.16351323223356,
207,yellow,,,,,,,,,,,,,,,,,0,205,205,205,,,,,,,,,,,,,,,,,,,,,,,,,,,,,,,,,,,630.7891405000119,None,,,,,,,,,,,,,,,,,,,,,,,,,,,,,,,,,,,,,,,dominik,001,,2019_Aug_26_1436,MTEC_paradigm,3.1.3,148.16351323223356,
208,yellow,,,,,,,,,,,,,,,,,0,206,206,206,,,,,,,,,,,,,,,,,,,,,,,,,,,,,,,,,,,631.786275099992,632.2861838999961,,,,,,,,,,,,,,,,,,,,,,,,,,,,,,,,,,,,,,,dominik,001,,2019_Aug_26_1436,MTEC_paradigm,3.1.3,148.16351323223356,
209,yellow,,,,,,,,,,,,,,,,,0,207,207,207,,,,,,,,,,,,,,,,,,,,,,,,,,,,,,,,,,,632.7915410000132,None,,,,,,,,,,,,,,,,,,,,,,,,,,,,,,,,,,,,,,,dominik,001,,2019_Aug_26_1436,MTEC_paradigm,3.1.3,148.16351323223356,
210,yellow,,,,,,,,,,,,,,,,,0,208,208,208,,,,,,,,,,,,,,,,,,,,,,,,,,,,,,,,,,,633.7898258999921,None,,,,,,,,,,,,,,,,,,,,,,,,,,,,,,,,,,,,,,,dominik,001,,2019_Aug_26_1436,MTEC_paradigm,3.1.3,148.16351323223356,
211,yellow,,,,,,,,,,,,,,,,,0,209,209,209,,,,,,,,,,,,,,,,,,,,,,,,,,,,,,,,,,,634.7910386000003,None,,,,,,,,,,,,,,,,,,,,,,,,,,,,,,,,,,,,,,,dominik,001,,2019_Aug_26_1436,MTEC_paradigm,3.1.3,148.16351323223356,
212,yellow,,,,,,,,,,,,,,,,,0,210,210,210,,,,,,,,,,,,,,,,,,,,,,,,,,,,,,,,,,,635.7907985000056,None,,,,,,,,,,,,,,,,,,,,,,,,,,,,,,,,,,,,,,,dominik,001,,2019_Aug_26_1436,MTEC_paradigm,3.1.3,148.16351323223356,
213,yellow,,,,,,,,,,,,,,,,,0,211,211,211,,,,,,,,,,,,,,,,,,,,,,,,,,,,,,,,,,,636.7911135000177,None,,,,,,,,,,,,,,,,,,,,,,,,,,,,,,,,,,,,,,,dominik,001,,2019_Aug_26_1436,MTEC_paradigm,3.1.3,148.16351323223356,
214,yellow,,,,,,,,,,,,,,,,,0,212,212,212,,,,,,,,,,,,,,,,,,,,,,,,,,,,,,,,,,,637.7919839000097,None,,,,,,,,,,,,,,,,,,,,,,,,,,,,,,,,,,,,,,,dominik,001,,2019_Aug_26_1436,MTEC_paradigm,3.1.3,148.16351323223356,
215,yellow,,,,,,,,,,,,,,,,,0,213,213,213,,,,,,,,,,,,,,,,,,,,,,,,,,,,,,,,,,,638.7927709000069,None,,,,,,,,,,,,,,,,,,,,,,,,,,,,,,,,,,,,,,,dominik,001,,2019_Aug_26_1436,MTEC_paradigm,3.1.3,148.16351323223356,
216,yellow,,,,,,,,,,,,,,,,,0,214,214,214,,,,,,,,,,,,,,,,,,,,,,,,,,,,,,,,,,,639.793932200002,None,,,,,,,,,,,,,,,,,,,,,,,,,,,,,,,,,,,,,,,dominik,001,,2019_Aug_26_1436,MTEC_paradigm,3.1.3,148.16351323223356,
217,yellow,,,,,,,,,,,,,,,,,0,215,215,215,,,,,,,,,,,,,,,,,,,,,,,,,,,,,,,,,,,640.7941684999969,None,,,,,,,,,,,,,,,,,,,,,,,,,,,,,,,,,,,,,,,dominik,001,,2019_Aug_26_1436,MTEC_paradigm,3.1.3,148.16351323223356,
218,yellow,,,,,,,,,,,,,,,,,0,216,216,216,,,,,,,,,,,,,,,,,,,,,,,,,,,,,,,,,,,641.7907396999944,None,,,,,,,,,,,,,,,,,,,,,,,,,,,,,,,,,,,,,,,dominik,001,,2019_Aug_26_1436,MTEC_paradigm,3.1.3,148.16351323223356,
219,yellow,,,,,,,,,,,,,,,,,0,217,217,217,,,,,,,,,,,,,,,,,,,,,,,,,,,,,,,,,,,642.7899564999971,None,,,,,,,,,,,,,,,,,,,,,,,,,,,,,,,,,,,,,,,dominik,001,,2019_Aug_26_1436,MTEC_paradigm,3.1.3,148.16351323223356,
220,yellow,,,,,,,,,,,,,,,,,0,218,218,218,,,,,,,,,,,,,,,,,,,,,,,,,,,,,,,,,,,643.7866837000183,644.2865279999969,,,,,,,,,,,,,,,,,,,,,,,,,,,,,,,,,,,,,,,dominik,001,,2019_Aug_26_1436,MTEC_paradigm,3.1.3,148.16351323223356,
221,yellow,,,,,,,,,,,,,,,,,0,219,219,219,,,,,,,,,,,,,,,,,,,,,,,,,,,,,,,,,,,644.7931611000095,None,,,,,,,,,,,,,,,,,,,,,,,,,,,,,,,,,,,,,,,dominik,001,,2019_Aug_26_1436,MTEC_paradigm,3.1.3,148.16351323223356,
222,yellow,,,,,,,,,,,,,,,,,0,220,220,220,,,,,,,,,,,,,,,,,,,,,,,,,,,,,,,,,,,645.793109899998,None,,,,,,,,,,,,,,,,,,,,,,,,,,,,,,,,,,,,,,,dominik,001,,2019_Aug_26_1436,MTEC_paradigm,3.1.3,148.16351323223356,
223,yellow,,,,,,,,,,,,,,,,,0,221,221,221,,,,,,,,,,,,,,,,,,,,,,,,,,,,,,,,,,,646.794518300012,None,,,,,,,,,,,,,,,,,,,,,,,,,,,,,,,,,,,,,,,dominik,001,,2019_Aug_26_1436,MTEC_paradigm,3.1.3,148.16351323223356,
224,yellow,,,,,,,,,,,,,,,,,0,222,222,222,,,,,,,,,,,,,,,,,,,,,,,,,,,,,,,,,,,647.7940900000103,None,,,,,,,,,,,,,,,,,,,,,,,,,,,,,,,,,,,,,,,dominik,001,,2019_Aug_26_1436,MTEC_paradigm,3.1.3,148.16351323223356,
225,yellow,,,,,,,,,,,,,,,,,0,223,223,223,,,,,,,,,,,,,,,,,,,,,,,,,,,,,,,,,,,648.7941539000021,None,,,,,,,,,,,,,,,,,,,,,,,,,,,,,,,,,,,,,,,dominik,001,,2019_Aug_26_1436,MTEC_paradigm,3.1.3,148.16351323223356,
226,yellow,,,,,,,,,,,,,,,,,0,224,224,224,,,,,,,,,,,,,,,,,,,,,,,,,,,,,,,,,,,649.7941903000174,None,,,,,,,,,,,,,,,,,,,,,,,,,,,,,,,,,,,,,,,dominik,001,,2019_Aug_26_1436,MTEC_paradigm,3.1.3,148.16351323223356,
227,yellow,,,,,,,,,,,,,,,,,0,225,225,225,,,,,,,,,,,,,,,,,,,,,,,,,,,,,,,,,,,650.7901155000145,None,,,,,,,,,,,,,,,,,,,,,,,,,,,,,,,,,,,,,,,dominik,001,,2019_Aug_26_1436,MTEC_paradigm,3.1.3,148.16351323223356,
228,yellow,,,,,,,,,,,,,,,,,0,226,226,226,,,,,,,,,,,,,,,,,,,,,,,,,,,,,,,,,,,651.7860583000001,652.2861128000077,,,,,,,,,,,,,,,,,,,,,,,,,,,,,,,,,,,,,,,dominik,001,,2019_Aug_26_1436,MTEC_paradigm,3.1.3,148.16351323223356,
229,yellow,,,,,,,,,,,,,,,,,0,227,227,227,,,,,,,,,,,,,,,,,,,,,,,,,,,,,,,,,,,652.7938527000078,None,,,,,,,,,,,,,,,,,,,,,,,,,,,,,,,,,,,,,,,dominik,001,,2019_Aug_26_1436,MTEC_paradigm,3.1.3,148.16351323223356,
230,yellow,,,,,,,,,,,,,,,,,0,228,228,228,,,,,,,,,,,,,,,,,,,,,,,,,,,,,,,,,,,653.7939387999941,None,,,,,,,,,,,,,,,,,,,,,,,,,,,,,,,,,,,,,,,dominik,001,,2019_Aug_26_1436,MTEC_paradigm,3.1.3,148.16351323223356,
231,yellow,,,,,,,,,,,,,,,,,0,229,229,229,,,,,,,,,,,,,,,,,,,,,,,,,,,,,,,,,,,654.7938312000188,None,,,,,,,,,,,,,,,,,,,,,,,,,,,,,,,,,,,,,,,dominik,001,,2019_Aug_26_1436,MTEC_paradigm,3.1.3,148.16351323223356,
232,yellow,,,,,,,,,,,,,,,,,0,230,230,230,,,,,,,,,,,,,,,,,,,,,,,,,,,,,,,,,,,655.7932545999938,None,,,,,,,,,,,,,,,,,,,,,,,,,,,,,,,,,,,,,,,dominik,001,,2019_Aug_26_1436,MTEC_paradigm,3.1.3,148.16351323223356,
233,yellow,,,,,,,,,,,,,,,,,0,231,231,231,,,,,,,,,,,,,,,,,,,,,,,,,,,,,,,,,,,656.7938295000058,None,,,,,,,,,,,,,,,,,,,,,,,,,,,,,,,,,,,,,,,dominik,001,,2019_Aug_26_1436,MTEC_paradigm,3.1.3,148.16351323223356,
234,yellow,,,,,,,,,,,,,,,,,0,232,232,232,,,,,,,,,,,,,,,,,,,,,,,,,,,,,,,,,,,657.7933665000019,None,,,,,,,,,,,,,,,,,,,,,,,,,,,,,,,,,,,,,,,dominik,001,,2019_Aug_26_1436,MTEC_paradigm,3.1.3,148.16351323223356,
235,yellow,,,,,,,,,,,,,,,,,0,233,233,233,,,,,,,,,,,,,,,,,,,,,,,,,,,,,,,,,,,658.7951080000203,None,,,,,,,,,,,,,,,,,,,,,,,,,,,,,,,,,,,,,,,dominik,001,,2019_Aug_26_1436,MTEC_paradigm,3.1.3,148.16351323223356,
236,yellow,,,,,,,,,,,,,,,,,0,234,234,234,,,,,,,,,,,,,,,,,,,,,,,,,,,,,,,,,,,659.791146500007,None,,,,,,,,,,,,,,,,,,,,,,,,,,,,,,,,,,,,,,,dominik,001,,2019_Aug_26_1436,MTEC_paradigm,3.1.3,148.16351323223356,
237,yellow,,,,,,,,,,,,,,,,,0,235,235,235,,,,,,,,,,,,,,,,,,,,,,,,,,,,,,,,,,,660.7877358999976,661.2874338999973,,,,,,,,,,,,,,,,,,,,,,,,,,,,,,,,,,,,,,,dominik,001,,2019_Aug_26_1436,MTEC_paradigm,3.1.3,148.16351323223356,
238,yellow,,,,,,,,,,,,,,,,,0,236,236,236,,,,,,,,,,,,,,,,,,,,,,,,,,,,,,,,,,,661.7942628000164,None,,,,,,,,,,,,,,,,,,,,,,,,,,,,,,,,,,,,,,,dominik,001,,2019_Aug_26_1436,MTEC_paradigm,3.1.3,148.16351323223356,
239,yellow,,,,,,,,,,,,,,,,,0,237,237,237,,,,,,,,,,,,,,,,,,,,,,,,,,,,,,,,,,,662.7940856000059,None,,,,,,,,,,,,,,,,,,,,,,,,,,,,,,,,,,,,,,,dominik,001,,2019_Aug_26_1436,MTEC_paradigm,3.1.3,148.16351323223356,
240,red,,,,,,,,,,,,,,,,,0,238,238,238,,,,,,,,,,,,,,,,,,,,,,,,,,,,,,,,,,,663.7911619000079,None,,,,,,,,,,,,,,,,,,,,,,,,,,,,,,,,,,,,,,,dominik,001,,2019_Aug_26_1436,MTEC_paradigm,3.1.3,148.16351323223356,
241,red,,,,,,,,,,,,,,,,,0,239,239,239,,,,,,,,,,,,,,,,,,,,,,,,,,,,,,,,,,,664.7926061000035,None,,,,,,,,,,,,,,,,,,,,,,,,,,,,,,,,,,,,,,,dominik,001,,2019_Aug_26_1436,MTEC_paradigm,3.1.3,148.16351323223356,
242,red,,,,,,,,,,,,,,,,,0,240,240,240,,,,,,,,,,,,,,,,,,,,,,,,,,,,,,,,,,,665.7920086999948,None,,,,,,,,,,,,,,,,,,,,,,,,,,,,,,,,,,,,,,,dominik,001,,2019_Aug_26_1436,MTEC_paradigm,3.1.3,148.16351323223356,
243,red,,,,,,,,,,,,,,,,,0,241,241,241,,,,,,,,,,,,,,,,,,,,,,,,,,,,,,,,,,,666.7919487000036,None,,,,,,,,,,,,,,,,,,,,,,,,,,,,,,,,,,,,,,,dominik,001,,2019_Aug_26_1436,MTEC_paradigm,3.1.3,148.16351323223356,
244,red,,,,,,,,,,,,,,,,,0,242,242,242,,,,,,,,,,,,,,,,,,,,,,,,,,,,,,,,,,,667.7914927999955,None,,,,,,,,,,,,,,,,,,,,,,,,,,,,,,,,,,,,,,,dominik,001,,2019_Aug_26_1436,MTEC_paradigm,3.1.3,148.16351323223356,
245,red,,,,,,,,,,,,,,,,,0,243,243,243,,,,,,,,,,,,,,,,,,,,,,,,,,,,,,,,,,,668.7913195000147,None,,,,,,,,,,,,,,,,,,,,,,,,,,,,,,,,,,,,,,,dominik,001,,2019_Aug_26_1436,MTEC_paradigm,3.1.3,148.16351323223356,
246,red,,,,,,,,,,,,,,,,,0,244,244,244,,,,,,,,,,,,,,,,,,,,,,,,,,,,,,,,,,,669.791002300015,None,,,,,,,,,,,,,,,,,,,,,,,,,,,,,,,,,,,,,,,dominik,001,,2019_Aug_26_1436,MTEC_paradigm,3.1.3,148.16351323223356,
247,red,,,,,,,,,,,,,,,,,0,245,245,245,,,,,,,,,,,,,,,,,,,,,,,,,,,,,,,,,,,670.7860064000124,671.2856745000172,,,,,,,,,,,,,,,,,,,,,,,,,,,,,,,,,,,,,,,dominik,001,,2019_Aug_26_1436,MTEC_paradigm,3.1.3,148.16351323223356,
248,red,,,,,,,,,,,,,,,,,0,246,246,246,,,,,,,,,,,,,,,,,,,,,,,,,,,,,,,,,,,671.7908096000028,None,,,,,,,,,,,,,,,,,,,,,,,,,,,,,,,,,,,,,,,dominik,001,,2019_Aug_26_1436,MTEC_paradigm,3.1.3,148.16351323223356,
249,red,,,,,,,,,,,,,,,,,0,247,247,247,,,,,,,,,,,,,,,,,,,,,,,,,,,,,,,,,,,672.7876446000009,673.2873164000048,,,,,,,,,,,,,,,,,,,,,,,,,,,,,,,,,,,,,,,dominik,001,,2019_Aug_26_1436,MTEC_paradigm,3.1.3,148.16351323223356,
250,red,,,,,,,,,,,,,,,,,0,248,248,248,,,,,,,,,,,,,,,,,,,,,,,,,,,,,,,,,,,673.7940252000117,None,,,,,,,,,,,,,,,,,,,,,,,,,,,,,,,,,,,,,,,dominik,001,,2019_Aug_26_1436,MTEC_paradigm,3.1.3,148.16351323223356,
251,red,,,,,,,,,,,,,,,,,0,249,249,249,,,,,,,,,,,,,,,,,,,,,,,,,,,,,,,,,,,674.7941131000116,None,,,,,,,,,,,,,,,,,,,,,,,,,,,,,,,,,,,,,,,dominik,001,,2019_Aug_26_1436,MTEC_paradigm,3.1.3,148.16351323223356,
252,red,,,,,,,,,,,,,,,,,0,250,250,250,,,,,,,,,,,,,,,,,,,,,,,,,,,,,,,,,,,675.793816999998,None,,,,,,,,,,,,,,,,,,,,,,,,,,,,,,,,,,,,,,,dominik,001,,2019_Aug_26_1436,MTEC_paradigm,3.1.3,148.16351323223356,
253,red,,,,,,,,,,,,,,,,,0,251,251,251,,,,,,,,,,,,,,,,,,,,,,,,,,,,,,,,,,,676.7941023000167,None,,,,,,,,,,,,,,,,,,,,,,,,,,,,,,,,,,,,,,,dominik,001,,2019_Aug_26_1436,MTEC_paradigm,3.1.3,148.16351323223356,
254,red,,,,,,,,,,,,,,,,,0,252,252,252,,,,,,,,,,,,,,,,,,,,,,,,,,,,,,,,,,,677.7938869000063,None,,,,,,,,,,,,,,,,,,,,,,,,,,,,,,,,,,,,,,,dominik,001,,2019_Aug_26_1436,MTEC_paradigm,3.1.3,148.16351323223356,
255,red,,,,,,,,,,,,,,,,,0,253,253,253,,,,,,,,,,,,,,,,,,,,,,,,,,,,,,,,,,,678.7938623999944,None,,,,,,,,,,,,,,,,,,,,,,,,,,,,,,,,,,,,,,,dominik,001,,2019_Aug_26_1436,MTEC_paradigm,3.1.3,148.16351323223356,
256,red,,,,,,,,,,,,,,,,,0,254,254,254,,,,,,,,,,,,,,,,,,,,,,,,,,,,,,,,,,,679.7938148000103,None,,,,,,,,,,,,,,,,,,,,,,,,,,,,,,,,,,,,,,,dominik,001,,2019_Aug_26_1436,MTEC_paradigm,3.1.3,148.16351323223356,
257,red,,,,,,,,,,,,,,,,,0,255,255,255,,,,,,,,,,,,,,,,,,,,,,,,,,,,,,,,,,,680.794208700012,None,,,,,,,,,,,,,,,,,,,,,,,,,,,,,,,,,,,,,,,dominik,001,,2019_Aug_26_1436,MTEC_paradigm,3.1.3,148.16351323223356,
258,red,,,,,,,,,,,,,,,,,0,256,256,256,,,,,,,,,,,,,,,,,,,,,,,,,,,,,,,,,,,681.7945476000023,None,,,,,,,,,,,,,,,,,,,,,,,,,,,,,,,,,,,,,,,dominik,001,,2019_Aug_26_1436,MTEC_paradigm,3.1.3,148.16351323223356,
259,red,,,,,,,,,,,,,,,,,0,257,257,257,,,,,,,,,,,,,,,,,,,,,,,,,,,,,,,,,,,682.7913936999976,None,,,,,,,,,,,,,,,,,,,,,,,,,,,,,,,,,,,,,,,dominik,001,,2019_Aug_26_1436,MTEC_paradigm,3.1.3,148.16351323223356,
260,red,,,,,,,,,,,,,,,,,0,258,258,258,,,,,,,,,,,,,,,,,,,,,,,,,,,,,,,,,,,683.7871393999958,684.2869880000071,,,,,,,,,,,,,,,,,,,,,,,,,,,,,,,,,,,,,,,dominik,001,,2019_Aug_26_1436,MTEC_paradigm,3.1.3,148.16351323223356,
261,red,,,,,,,,,,,,,,,,,0,259,259,259,,,,,,,,,,,,,,,,,,,,,,,,,,,,,,,,,,,684.7938393999939,None,,,,,,,,,,,,,,,,,,,,,,,,,,,,,,,,,,,,,,,dominik,001,,2019_Aug_26_1436,MTEC_paradigm,3.1.3,148.16351323223356,
262,red,,,,,,,,,,,,,,,,,0,260,260,260,,,,,,,,,,,,,,,,,,,,,,,,,,,,,,,,,,,685.7933145000134,None,,,,,,,,,,,,,,,,,,,,,,,,,,,,,,,,,,,,,,,dominik,001,,2019_Aug_26_1436,MTEC_paradigm,3.1.3,148.16351323223356,
263,red,,,,,,,,,,,,,,,,,0,261,261,261,,,,,,,,,,,,,,,,,,,,,,,,,,,,,,,,,,,686.7938488000073,None,,,,,,,,,,,,,,,,,,,,,,,,,,,,,,,,,,,,,,,dominik,001,,2019_Aug_26_1436,MTEC_paradigm,3.1.3,148.16351323223356,
264,red,,,,,,,,,,,,,,,,,0,262,262,262,,,,,,,,,,,,,,,,,,,,,,,,,,,,,,,,,,,687.7931094999949,None,,,,,,,,,,,,,,,,,,,,,,,,,,,,,,,,,,,,,,,dominik,001,,2019_Aug_26_1436,MTEC_paradigm,3.1.3,148.16351323223356,
265,red,,,,,,,,,,,,,,,,,0,263,263,263,,,,,,,,,,,,,,,,,,,,,,,,,,,,,,,,,,,688.792737700016,None,,,,,,,,,,,,,,,,,,,,,,,,,,,,,,,,,,,,,,,dominik,001,,2019_Aug_26_1436,MTEC_paradigm,3.1.3,148.16351323223356,
266,red,,,,,,,,,,,,,,,,,0,264,264,264,,,,,,,,,,,,,,,,,,,,,,,,,,,,,,,,,,,689.7927966999996,None,,,,,,,,,,,,,,,,,,,,,,,,,,,,,,,,,,,,,,,dominik,001,,2019_Aug_26_1436,MTEC_paradigm,3.1.3,148.16351323223356,
267,red,,,,,,,,,,,,,,,,,0,265,265,265,,,,,,,,,,,,,,,,,,,,,,,,,,,,,,,,,,,690.7879003999988,691.2875186000019,,,,,,,,,,,,,,,,,,,,,,,,,,,,,,,,,,,,,,,dominik,001,,2019_Aug_26_1436,MTEC_paradigm,3.1.3,148.16351323223356,
268,red,,,,,,,,,,,,,,,,,0,266,266,266,,,,,,,,,,,,,,,,,,,,,,,,,,,,,,,,,,,691.7944448000053,None,,,,,,,,,,,,,,,,,,,,,,,,,,,,,,,,,,,,,,,dominik,001,,2019_Aug_26_1436,MTEC_paradigm,3.1.3,148.16351323223356,
269,red,,,,,,,,,,,,,,,,,0,267,267,267,,,,,,,,,,,,,,,,,,,,,,,,,,,,,,,,,,,692.7915419000201,None,,,,,,,,,,,,,,,,,,,,,,,,,,,,,,,,,,,,,,,dominik,001,,2019_Aug_26_1436,MTEC_paradigm,3.1.3,148.16351323223356,
270,red,,,,,,,,,,,,,,,,,0,268,268,268,,,,,,,,,,,,,,,,,,,,,,,,,,,,,,,,,,,693.7929952999984,None,,,,,,,,,,,,,,,,,,,,,,,,,,,,,,,,,,,,,,,dominik,001,,2019_Aug_26_1436,MTEC_paradigm,3.1.3,148.16351323223356,
271,red,,,,,,,,,,,,,,,,,0,269,269,269,,,,,,,,,,,,,,,,,,,,,,,,,,,,,,,,,,,694.791721400019,None,,,,,,,,,,,,,,,,,,,,,,,,,,,,,,,,,,,,,,,dominik,001,,2019_Aug_26_1436,MTEC_paradigm,3.1.3,148.16351323223356,
272,red,,,,,,,,,,,,,,,,,0,270,270,270,,,,,,,,,,,,,,,,,,,,,,,,,,,,,,,,,,,695.7879023000132,696.2879407000146,,,,,,,,,,,,,,,,,,,,,,,,,,,,,,,,,,,,,,,dominik,001,,2019_Aug_26_1436,MTEC_paradigm,3.1.3,148.16351323223356,
273,red,,,,,,,,,,,,,,,,,0,271,271,271,,,,,,,,,,,,,,,,,,,,,,,,,,,,,,,,,,,696.7947611999989,None,,,,,,,,,,,,,,,,,,,,,,,,,,,,,,,,,,,,,,,dominik,001,,2019_Aug_26_1436,MTEC_paradigm,3.1.3,148.16351323223356,
274,red,,,,,,,,,,,,,,,,,0,272,272,272,,,,,,,,,,,,,,,,,,,,,,,,,,,,,,,,,,,697.7945069000125,None,,,,,,,,,,,,,,,,,,,,,,,,,,,,,,,,,,,,,,,dominik,001,,2019_Aug_26_1436,MTEC_paradigm,3.1.3,148.16351323223356,
275,red,,,,,,,,,,,,,,,,,0,273,273,273,,,,,,,,,,,,,,,,,,,,,,,,,,,,,,,,,,,698.7946807999979,None,,,,,,,,,,,,,,,,,,,,,,,,,,,,,,,,,,,,,,,dominik,001,,2019_Aug_26_1436,MTEC_paradigm,3.1.3,148.16351323223356,
276,red,,,,,,,,,,,,,,,,,0,274,274,274,,,,,,,,,,,,,,,,,,,,,,,,,,,,,,,,,,,699.7946857000061,None,,,,,,,,,,,,,,,,,,,,,,,,,,,,,,,,,,,,,,,dominik,001,,2019_Aug_26_1436,MTEC_paradigm,3.1.3,148.16351323223356,
277,red,,,,,,,,,,,,,,,,,0,275,275,275,,,,,,,,,,,,,,,,,,,,,,,,,,,,,,,,,,,700.7946147000184,None,,,,,,,,,,,,,,,,,,,,,,,,,,,,,,,,,,,,,,,dominik,001,,2019_Aug_26_1436,MTEC_paradigm,3.1.3,148.16351323223356,
278,red,,,,,,,,,,,,,,,,,0,276,276,276,,,,,,,,,,,,,,,,,,,,,,,,,,,,,,,,,,,701.7944540000171,None,,,,,,,,,,,,,,,,,,,,,,,,,,,,,,,,,,,,,,,dominik,001,,2019_Aug_26_1436,MTEC_paradigm,3.1.3,148.16351323223356,
279,red,,,,,,,,,,,,,,,,,0,277,277,277,,,,,,,,,,,,,,,,,,,,,,,,,,,,,,,,,,,702.7946976000094,None,,,,,,,,,,,,,,,,,,,,,,,,,,,,,,,,,,,,,,,dominik,001,,2019_Aug_26_1436,MTEC_paradigm,3.1.3,148.16351323223356,
280,red,,,,,,,,,,,,,,,,,0,278,278,278,,,,,,,,,,,,,,,,,,,,,,,,,,,,,,,,,,,703.7944722000102,None,,,,,,,,,,,,,,,,,,,,,,,,,,,,,,,,,,,,,,,dominik,001,,2019_Aug_26_1436,MTEC_paradigm,3.1.3,148.16351323223356,
281,red,,,,,,,,,,,,,,,,,0,279,279,279,,,,,,,,,,,,,,,,,,,,,,,,,,,,,,,,,,,704.7946532999922,None,,,,,,,,,,,,,,,,,,,,,,,,,,,,,,,,,,,,,,,dominik,001,,2019_Aug_26_1436,MTEC_paradigm,3.1.3,148.16351323223356,
282,red,,,,,,,,,,,,,,,,,0,280,280,280,,,,,,,,,,,,,,,,,,,,,,,,,,,,,,,,,,,705.7947308000003,None,,,,,,,,,,,,,,,,,,,,,,,,,,,,,,,,,,,,,,,dominik,001,,2019_Aug_26_1436,MTEC_paradigm,3.1.3,148.16351323223356,
283,red,,,,,,,,,,,,,,,,,0,281,281,281,,,,,,,,,,,,,,,,,,,,,,,,,,,,,,,,,,,706.7916799999948,None,,,,,,,,,,,,,,,,,,,,,,,,,,,,,,,,,,,,,,,dominik,001,,2019_Aug_26_1436,MTEC_paradigm,3.1.3,148.16351323223356,
284,red,,,,,,,,,,,,,,,,,0,282,282,282,,,,,,,,,,,,,,,,,,,,,,,,,,,,,,,,,,,707.7929270000022,None,,,,,,,,,,,,,,,,,,,,,,,,,,,,,,,,,,,,,,,dominik,001,,2019_Aug_26_1436,MTEC_paradigm,3.1.3,148.16351323223356,
285,red,,,,,,,,,,,,,,,,,0,283,283,283,,,,,,,,,,,,,,,,,,,,,,,,,,,,,,,,,,,708.7912757000013,None,,,,,,,,,,,,,,,,,,,,,,,,,,,,,,,,,,,,,,,dominik,001,,2019_Aug_26_1436,MTEC_paradigm,3.1.3,148.16351323223356,
286,red,,,,,,,,,,,,,,,,,0,284,284,284,,,,,,,,,,,,,,,,,,,,,,,,,,,,,,,,,,,709.7890228000178,None,,,,,,,,,,,,,,,,,,,,,,,,,,,,,,,,,,,,,,,dominik,001,,2019_Aug_26_1436,MTEC_paradigm,3.1.3,148.16351323223356,
287,red,,,,,,,,,,,,,,,,,0,285,285,285,,,,,,,,,,,,,,,,,,,,,,,,,,,,,,,,,,,710.7900568000041,None,,,,,,,,,,,,,,,,,,,,,,,,,,,,,,,,,,,,,,,dominik,001,,2019_Aug_26_1436,MTEC_paradigm,3.1.3,148.16351323223356,
288,red,,,,,,,,,,,,,,,,,0,286,286,286,,,,,,,,,,,,,,,,,,,,,,,,,,,,,,,,,,,711.7896557000058,None,,,,,,,,,,,,,,,,,,,,,,,,,,,,,,,,,,,,,,,dominik,001,,2019_Aug_26_1436,MTEC_paradigm,3.1.3,148.16351323223356,
289,red,,,,,,,,,,,,,,,,,0,287,287,287,,,,,,,,,,,,,,,,,,,,,,,,,,,,,,,,,,,712.7894558999978,None,,,,,,,,,,,,,,,,,,,,,,,,,,,,,,,,,,,,,,,dominik,001,,2019_Aug_26_1436,MTEC_paradigm,3.1.3,148.16351323223356,
290,red,,,,,,,,,,,,,,,,,0,288,288,288,,,,,,,,,,,,,,,,,,,,,,,,,,,,,,,,,,,713.7902809999941,None,,,,,,,,,,,,,,,,,,,,,,,,,,,,,,,,,,,,,,,dominik,001,,2019_Aug_26_1436,MTEC_paradigm,3.1.3,148.16351323223356,
291,red,,,,,,,,,,,,,,,,,0,289,289,289,,,,,,,,,,,,,,,,,,,,,,,,,,,,,,,,,,,714.7900439999939,None,,,,,,,,,,,,,,,,,,,,,,,,,,,,,,,,,,,,,,,dominik,001,,2019_Aug_26_1436,MTEC_paradigm,3.1.3,148.16351323223356,
292,red,,,,,,,,,,,,,,,,,0,290,290,290,,,,,,,,,,,,,,,,,,,,,,,,,,,,,,,,,,,715.7894631999952,None,,,,,,,,,,,,,,,,,,,,,,,,,,,,,,,,,,,,,,,dominik,001,,2019_Aug_26_1436,MTEC_paradigm,3.1.3,148.16351323223356,
293,red,,,,,,,,,,,,,,,,,0,291,291,291,,,,,,,,,,,,,,,,,,,,,,,,,,,,,,,,,,,716.7895017999981,None,,,,,,,,,,,,,,,,,,,,,,,,,,,,,,,,,,,,,,,dominik,001,,2019_Aug_26_1436,MTEC_paradigm,3.1.3,148.16351323223356,
294,red,,,,,,,,,,,,,,,,,0,292,292,292,,,,,,,,,,,,,,,,,,,,,,,,,,,,,,,,,,,717.7843920000014,718.2842772000004,,,,,,,,,,,,,,,,,,,,,,,,,,,,,,,,,,,,,,,dominik,001,,2019_Aug_26_1436,MTEC_paradigm,3.1.3,148.16351323223356,
295,red,,,,,,,,,,,,,,,,,0,293,293,293,,,,,,,,,,,,,,,,,,,,,,,,,,,,,,,,,,,718.7873646999942,719.2872138000093,,,,,,,,,,,,,,,,,,,,,,,,,,,,,,,,,,,,,,,dominik,001,,2019_Aug_26_1436,MTEC_paradigm,3.1.3,148.16351323223356,
296,red,,,,,,,,,,,,,,,,,0,294,294,294,,,,,,,,,,,,,,,,,,,,,,,,,,,,,,,,,,,719.794200400007,None,,,,,,,,,,,,,,,,,,,,,,,,,,,,,,,,,,,,,,,dominik,001,,2019_Aug_26_1436,MTEC_paradigm,3.1.3,148.16351323223356,
297,red,,,,,,,,,,,,,,,,,0,295,295,295,,,,,,,,,,,,,,,,,,,,,,,,,,,,,,,,,,,720.7940275000001,None,,,,,,,,,,,,,,,,,,,,,,,,,,,,,,,,,,,,,,,dominik,001,,2019_Aug_26_1436,MTEC_paradigm,3.1.3,148.16351323223356,
298,red,,,,,,,,,,,,,,,,,0,296,296,296,,,,,,,,,,,,,,,,,,,,,,,,,,,,,,,,,,,721.7940032000188,None,,,,,,,,,,,,,,,,,,,,,,,,,,,,,,,,,,,,,,,dominik,001,,2019_Aug_26_1436,MTEC_paradigm,3.1.3,148.16351323223356,
299,red,,,,,,,,,,,,,,,,,0,297,297,297,,,,,,,,,,,,,,,,,,,,,,,,,,,,,,,,,,,722.7938155000156,None,,,,,,,,,,,,,,,,,,,,,,,,,,,,,,,,,,,,,,,dominik,001,,2019_Aug_26_1436,MTEC_paradigm,3.1.3,148.16351323223356,
300,red,,,,,,,,,,,,,,,,,0,298,298,298,,,,,,,,,,,,,,,,,,,,,,,,,,,,,,,,,,,723.7938163999934,None,,,,,,,,,,,,,,,,,,,,,,,,,,,,,,,,,,,,,,,dominik,001,,2019_Aug_26_1436,MTEC_paradigm,3.1.3,148.16351323223356,
,,,,,,,,,,,,,,,,,,,,,,,,,,,,,,,,,,,,,,,,,,,,,,,,,,,,,,,,,,6,9.826,,,,,,,,,,,,,,,,,,,,,,,,,,,,,,,,,,,,,dominik,001,,2019_Aug_26_1436,MTEC_paradigm,3.1.3,148.16351323223356,
,,orange,brown,brown,orange,left,,,,,,,,,,,,,,,,0,0,0,170,,,,,,,,,,,,,,,,,,,,,,,,,,,,,,,,,,,0.0007039000047370791,None,left,2.626813500013668,742.9008481999917,None,,,,,,,,,,,,,,,,,,,,,,,,,,,,,,,dominik,001,,2019_Aug_26_1436,MTEC_paradigm,3.1.3,148.16351323223356,
,,magenta,brown,brown,magenta,left,,,,,,,,,,,,,,,,0,1,1,143,,,,,,,,,,,,,,,,,,,,,,,,,,,,,,,,,,,,,left,1.6663579000160098,745.5492040000099,None,,,,,,,,,,,,,,,,,,,,,,,,,,,,,,,dominik,001,,2019_Aug_26_1436,MTEC_paradigm,3.1.3,148.16351323223356,
,,brown,black,brown,black,right,,,,,,,,,,,,,,,,0,2,2,80,,,,,,,,,,,,,,,,,,,,,,,,,,,,,,,,,,,,,right,1.5839752999891061,747.2395782000094,None,,,,,,,,,,,,,,,,,,,,,,,,,,,,,,,dominik,001,,2019_Aug_26_1436,MTEC_paradigm,3.1.3,148.16351323223356,
,,cyan,magenta,cyan,magenta,right,,,,,,,,,,,,,,,,0,3,3,48,,,,,,,,,,,,,,,,,,,,,,,,,,,,,,,,,,,,,right,1.2383947999915108,748.8451605000009,None,,,,,,,,,,,,,,,,,,,,,,,,,,,,,,,dominik,001,,2019_Aug_26_1436,MTEC_paradigm,3.1.3,148.16351323223356,
,,black,magenta,black,magenta,right,,,,,,,,,,,,,,,,0,4,4,102,,,,,,,,,,,,,,,,,,,,,,,,,,,,,,,,,,,,,right,1.9830233000102453,750.1046085999988,None,,,,,,,,,,,,,,,,,,,,,,,,,,,,,,,dominik,001,,2019_Aug_26_1436,MTEC_paradigm,3.1.3,148.16351323223356,
,,grey,green,grey,green,right,,,,,,,,,,,,,,,,0,5,5,92,,,,,,,,,,,,,,,,,,,,,,,,,,,,,,,,,,,,,right,1.194852799992077,752.1097828000202,None,,,,,,,,,,,,,,,,,,,,,,,,,,,,,,,dominik,001,,2019_Aug_26_1436,MTEC_paradigm,3.1.3,148.16351323223356,
,,orange,green,orange,green,right,,,,,,,,,,,,,,,,0,6,6,65,,,,,,,,,,,,,,,,,,,,,,,,,,,,,,,,,,,,,right,1.5475879999867175,753.321978299995,None,,,,,,,,,,,,,,,,,,,,,,,,,,,,,,,dominik,001,,2019_Aug_26_1436,MTEC_paradigm,3.1.3,148.16351323223356,
,,yellow,orange,orange,yellow,left,,,,,,,,,,,,,,,,0,7,7,159,,,,,,,,,,,,,,,,,,,,,,,,,,,,,,,,,,,,,right,3.2375028999813367,754.8860552000115,None,,,,,,,,,,,,,,,,,,,,,,,,,,,,,,,dominik,001,,2019_Aug_26_1436,MTEC_paradigm,3.1.3,148.16351323223356,
,,green,orange,orange,green,left,,,,,,,,,,,,,,,,0,8,8,132,,,,,,,,,,,,,,,,,,,,,,,,,,,,,,,,,,,,,left,2.6769673000089824,758.1386005000095,None,,,,,,,,,,,,,,,,,,,,,,,,,,,,,,,dominik,001,,2019_Aug_26_1436,MTEC_paradigm,3.1.3,148.16351323223356,
,,brown,blue,blue,brown,left,,,,,,,,,,,,,,,,0,9,9,192,,,,,,,,,,,,,,,,,,,,,,,,,,,,,,,,,,,,,left,2.928312600008212,760.837239000015,None,,,,,,,,,,,,,,,,,,,,,,,,,,,,,,,dominik,001,,2019_Aug_26_1436,MTEC_paradigm,3.1.3,148.16351323223356,
,,black,purple,purple,black,left,,,,,,,,,,,,,,,,0,10,10,216,,,,,,,,,,,,,,,,,,,,,,,,,,,,,,,,,,,,,left,1.855311499995878,763.7872745000059,None,,,,,,,,,,,,,,,,,,,,,,,,,,,,,,,dominik,001,,2019_Aug_26_1436,MTEC_paradigm,3.1.3,148.16351323223356,
,,magenta,yellow,magenta,yellow,right,,,,,,,,,,,,,,,,0,11,11,30,,,,,,,,,,,,,,,,,,,,,,,,,,,,,,,,,,,,,right,1.2759221000014804,765.6646413000126,None,,,,,,,,,,,,,,,,,,,,,,,,,,,,,,,dominik,001,,2019_Aug_26_1436,MTEC_paradigm,3.1.3,148.16351323223356,
,,black,orange,orange,black,left,,,,,,,,,,,,,,,,0,12,12,215,,,,,,,,,,,,,,,,,,,,,,,,,,,,,,,,,,,,,left,1.4709857999987435,766.962571800017,None,,,,,,,,,,,,,,,,,,,,,,,,,,,,,,,dominik,001,,2019_Aug_26_1436,MTEC_paradigm,3.1.3,148.16351323223356,
,,orange,cyan,orange,cyan,right,,,,,,,,,,,,,,,,0,13,13,67,,,,,,,,,,,,,,,,,,,,,,,,,,,,,,,,,,,,,right,2.2860655000258703,768.4524952000065,None,,,,,,,,,,,,,,,,,,,,,,,,,,,,,,,dominik,001,,2019_Aug_26_1436,MTEC_paradigm,3.1.3,148.16351323223356,
,,orange,blue,orange,blue,right,,,,,,,,,,,,,,,,0,14,14,64,,,,,,,,,,,,,,,,,,,,,,,,,,,,,,,,,,,,,right,1.1602897999982815,770.751270800014,None,,,,,,,,,,,,,,,,,,,,,,,,,,,,,,,dominik,001,,2019_Aug_26_1436,MTEC_paradigm,3.1.3,148.16351323223356,
,,green,magenta,magenta,green,left,,,,,,,,,,,,,,,,0,15,15,129,,,,,,,,,,,,,,,,,,,,,,,,,,,,,,,,,,,,,left,1.2193889000045601,771.9341547999938,None,,,,,,,,,,,,,,,,,,,,,,,,,,,,,,,dominik,001,,2019_Aug_26_1436,MTEC_paradigm,3.1.3,148.16351323223356,
,,blue,grey,blue,grey,right,,,,,,,,,,,,,,,,0,16,16,16,,,,,,,,,,,,,,,,,,,,,,,,,,,,,,,,,,,,,right,0.9851848999969661,773.1703811000043,None,,,,,,,,,,,,,,,,,,,,,,,,,,,,,,,dominik,001,,2019_Aug_26_1436,MTEC_paradigm,3.1.3,148.16351323223356,
,,yellow,blue,yellow,blue,right,,,,,,,,,,,,,,,,0,17,17,55,,,,,,,,,,,,,,,,,,,,,,,,,,,,,,,,,,,,,right,2.216001699998742,774.1745576999965,None,,,,,,,,,,,,,,,,,,,,,,,,,,,,,,,dominik,001,,2019_Aug_26_1436,MTEC_paradigm,3.1.3,148.16351323223356,
,,grey,black,grey,black,right,,,,,,,,,,,,,,,,0,18,18,89,,,,,,,,,,,,,,,,,,,,,,,,,,,,,,,,,,,,,right,1.1230911000166088,776.4084659999935,None,,,,,,,,,,,,,,,,,,,,,,,,,,,,,,,dominik,001,,2019_Aug_26_1436,MTEC_paradigm,3.1.3,148.16351323223356,
,,purple,magenta,purple,magenta,right,,,,,,,,,,,,,,,,0,19,19,75,,,,,,,,,,,,,,,,,,,,,,,,,,,,,,,,,,,,,right,0.9692275999987032,777.5573197000194,None,,,,,,,,,,,,,,,,,,,,,,,,,,,,,,,dominik,001,,2019_Aug_26_1436,MTEC_paradigm,3.1.3,148.16351323223356,
,,yellow,red,red,yellow,left,,,,,,,,,,,,,,,,0,20,20,164,,,,,,,,,,,,,,,,,,,,,,,,,,,,,,,,,,,,,left,0.9961880999908317,778.5483688999957,None,,,,,,,,,,,,,,,,,,,,,,,,,,,,,,,dominik,001,,2019_Aug_26_1436,MTEC_paradigm,3.1.3,148.16351323223356,
,,orange,purple,purple,orange,left,,,,,,,,,,,,,,,,0,21,21,169,,,,,,,,,,,,,,,,,,,,,,,,,,,,,,,,,,,,,left,1.4973855999996886,779.5671674000041,None,,,,,,,,,,,,,,,,,,,,,,,,,,,,,,,dominik,001,,2019_Aug_26_1436,MTEC_paradigm,3.1.3,148.16351323223356,
,,purple,orange,purple,orange,right,,,,,,,,,,,,,,,,0,22,22,78,,,,,,,,,,,,,,,,,,,,,,,,,,,,,,,,,,,,,right,1.2125241000030655,781.0820282000059,None,,,,,,,,,,,,,,,,,,,,,,,,,,,,,,,dominik,001,,2019_Aug_26_1436,MTEC_paradigm,3.1.3,148.16351323223356,
,,red,purple,purple,red,left,,,,,,,,,,,,,,,,0,23,23,115,,,,,,,,,,,,,,,,,,,,,,,,,,,,,,,,,,,,,left,1.3562809999857564,782.309267900011,None,,,,,,,,,,,,,,,,,,,,,,,,,,,,,,,dominik,001,,2019_Aug_26_1436,MTEC_paradigm,3.1.3,148.16351323223356,
,,orange,green,green,orange,left,,,,,,,,,,,,,,,,0,24,24,175,,,,,,,,,,,,,,,,,,,,,,,,,,,,,,,,,,,,,left,2.4684091999952216,783.6901490000018,None,,,,,,,,,,,,,,,,,,,,,,,,,,,,,,,dominik,001,,2019_Aug_26_1436,MTEC_paradigm,3.1.3,148.16351323223356,
,,brown,yellow,yellow,brown,left,,,,,,,,,,,,,,,,0,25,25,196,,,,,,,,,,,,,,,,,,,,,,,,,,,,,,,,,,,,,left,1.0074279999826103,786.1801344999985,None,,,,,,,,,,,,,,,,,,,,,,,,,,,,,,,dominik,001,,2019_Aug_26_1436,MTEC_paradigm,3.1.3,148.16351323223356,
,,purple,red,purple,red,right,,,,,,,,,,,,,,,,0,26,26,72,,,,,,,,,,,,,,,,,,,,,,,,,,,,,,,,,,,,,right,1.8460329000081401,787.206523300003,None,,,,,,,,,,,,,,,,,,,,,,,,,,,,,,,dominik,001,,2019_Aug_26_1436,MTEC_paradigm,3.1.3,148.16351323223356,
,,green,blue,green,blue,right,,,,,,,,,,,,,,,,0,27,27,28,,,,,,,,,,,,,,,,,,,,,,,,,,,,,,,,,,,,,right,2.0163564999820665,789.0742076000024,None,,,,,,,,,,,,,,,,,,,,,,,,,,,,,,,dominik,001,,2019_Aug_26_1436,MTEC_paradigm,3.1.3,148.16351323223356,
,,purple,red,red,purple,left,,,,,,,,,,,,,,,,0,28,28,182,,,,,,,,,,,,,,,,,,,,,,,,,,,,,,,,,,,,,left,0.9768736000114586,791.1117056999938,None,,,,,,,,,,,,,,,,,,,,,,,,,,,,,,,dominik,001,,2019_Aug_26_1436,MTEC_paradigm,3.1.3,148.16351323223356,
,,yellow,black,black,yellow,left,,,,,,,,,,,,,,,,0,29,29,163,,,,,,,,,,,,,,,,,,,,,,,,,,,,,,,,,,,,,left,0.893845099984901,792.1137061000045,None,,,,,,,,,,,,,,,,,,,,,,,,,,,,,,,dominik,001,,2019_Aug_26_1436,MTEC_paradigm,3.1.3,148.16351323223356,
,,magenta,green,green,magenta,left,,,,,,,,,,,,,,,,0,30,30,148,,,,,,,,,,,,,,,,,,,,,,,,,,,,,,,,,,,,,left,1.4234195000026375,793.0311903000111,None,,,,,,,,,,,,,,,,,,,,,,,,,,,,,,,dominik,001,,2019_Aug_26_1436,MTEC_paradigm,3.1.3,148.16351323223356,
,,blue,green,green,blue,left,,,,,,,,,,,,,,,,0,31,31,119,,,,,,,,,,,,,,,,,,,,,,,,,,,,,,,,,,,,,left,0.8671721999999136,794.4723909000168,None,,,,,,,,,,,,,,,,,,,,,,,,,,,,,,,dominik,001,,2019_Aug_26_1436,MTEC_paradigm,3.1.3,148.16351323223356,
,,yellow,green,green,yellow,left,,,,,,,,,,,,,,,,0,32,32,166,,,,,,,,,,,,,,,,,,,,,,,,,,,,,,,,,,,,,left,0.9764741999970283,795.359082400013,None,,,,,,,,,,,,,,,,,,,,,,,,,,,,,,,dominik,001,,2019_Aug_26_1436,MTEC_paradigm,3.1.3,148.16351323223356,
,,yellow,cyan,yellow,cyan,right,,,,,,,,,,,,,,,,0,33,33,58,,,,,,,,,,,,,,,,,,,,,,,,,,,,,,,,,,,,,right,1.0723520000174176,796.355215699994,None,,,,,,,,,,,,,,,,,,,,,,,,,,,,,,,dominik,001,,2019_Aug_26_1436,MTEC_paradigm,3.1.3,148.16351323223356,
,,yellow,brown,yellow,brown,right,,,,,,,,,,,,,,,,0,34,34,51,,,,,,,,,,,,,,,,,,,,,,,,,,,,,,,,,,,,,right,1.1992139000212774,797.4403340000135,None,,,,,,,,,,,,,,,,,,,,,,,,,,,,,,,dominik,001,,2019_Aug_26_1436,MTEC_paradigm,3.1.3,148.16351323223356,
,,brown,cyan,brown,cyan,right,,,,,,,,,,,,,,,,0,35,35,85,,,,,,,,,,,,,,,,,,,,,,,,,,,,,,,,,,,,,right,1.4224807000136934,798.6621767000179,None,,,,,,,,,,,,,,,,,,,,,,,,,,,,,,,dominik,001,,2019_Aug_26_1436,MTEC_paradigm,3.1.3,148.16351323223356,
,,yellow,black,yellow,black,right,,,,,,,,,,,,,,,,0,36,36,53,,,,,,,,,,,,,,,,,,,,,,,,,,,,,,,,,,,,,right,0.9798989999981131,800.1056544000166,None,,,,,,,,,,,,,,,,,,,,,,,,,,,,,,,dominik,001,,2019_Aug_26_1436,MTEC_paradigm,3.1.3,148.16351323223356,
,,blue,orange,blue,orange,right,,,,,,,,,,,,,,,,0,37,37,13,,,,,,,,,,,,,,,,,,,,,,,,,,,,,,,,,,,,,right,1.8512061999936122,801.1043914000038,None,,,,,,,,,,,,,,,,,,,,,,,,,,,,,,,dominik,001,,2019_Aug_26_1436,MTEC_paradigm,3.1.3,148.16351323223356,
,,magenta,purple,magenta,purple,right,,,,,,,,,,,,,,,,0,38,38,32,,,,,,,,,,,,,,,,,,,,,,,,,,,,,,,,,,,,,left,2.0670391999883577,802.9745171999966,None,,,,,,,,,,,,,,,,,,,,,,,,,,,,,,,dominik,001,,2019_Aug_26_1436,MTEC_paradigm,3.1.3,148.16351323223356,
,,red,green,green,red,left,,,,,,,,,,,,,,,,0,39,39,110,,,,,,,,,,,,,,,,,,,,,,,,,,,,,,,,,,,,,left,3.707231399981538,805.0593369000126,None,,,,,,,,,,,,,,,,,,,,,,,,,,,,,,,dominik,001,,2019_Aug_26_1436,MTEC_paradigm,3.1.3,148.16351323223356,
,,black,brown,brown,black,left,,,,,,,,,,,,,,,,0,40,40,217,,,,,,,,,,,,,,,,,,,,,,,,,,,,,,,,,,,,,left,2.0401026000035927,808.7874763,None,,,,,,,,,,,,,,,,,,,,,,,,,,,,,,,dominik,001,,2019_Aug_26_1436,MTEC_paradigm,3.1.3,148.16351323223356,
,,blue,orange,orange,blue,left,,,,,,,,,,,,,,,,0,41,41,123,,,,,,,,,,,,,,,,,,,,,,,,,,,,,,,,,,,,,left,1.1464641000202391,810.8501390000165,None,,,,,,,,,,,,,,,,,,,,,,,,,,,,,,,dominik,001,,2019_Aug_26_1436,MTEC_paradigm,3.1.3,148.16351323223356,
,,magenta,red,magenta,red,right,,,,,,,,,,,,,,,,0,42,42,36,,,,,,,,,,,,,,,,,,,,,,,,,,,,,,,,,,,,,left,1.074992799985921,812.0155827999988,None,,,,,,,,,,,,,,,,,,,,,,,,,,,,,,,dominik,001,,2019_Aug_26_1436,MTEC_paradigm,3.1.3,148.16351323223356,
,,yellow,cyan,cyan,yellow,left,,,,,,,,,,,,,,,,0,43,43,168,,,,,,,,,,,,,,,,,,,,,,,,,,,,,,,,,,,,,left,1.3680633000039961,813.1124966999923,None,,,,,,,,,,,,,,,,,,,,,,,,,,,,,,,dominik,001,,2019_Aug_26_1436,MTEC_paradigm,3.1.3,148.16351323223356,
,,cyan,grey,grey,cyan,left,,,,,,,,,,,,,,,,0,44,44,153,,,,,,,,,,,,,,,,,,,,,,,,,,,,,,,,,,,,,left,1.1941169000056107,814.499444999994,None,,,,,,,,,,,,,,,,,,,,,,,,,,,,,,,dominik,001,,2019_Aug_26_1436,MTEC_paradigm,3.1.3,148.16351323223356,
,,green,blue,blue,green,left,,,,,,,,,,,,,,,,0,45,45,138,,,,,,,,,,,,,,,,,,,,,,,,,,,,,,,,,,,,,left,2.05205090000527,815.744494100014,None,,,,,,,,,,,,,,,,,,,,,,,,,,,,,,,dominik,001,,2019_Aug_26_1436,MTEC_paradigm,3.1.3,148.16351323223356,
,,brown,blue,brown,blue,right,,,,,,,,,,,,,,,,0,46,46,82,,,,,,,,,,,,,,,,,,,,,,,,,,,,,,,,,,,,,right,1.548428200010676,817.8165847999917,None,,,,,,,,,,,,,,,,,,,,,,,,,,,,,,,dominik,001,,2019_Aug_26_1436,MTEC_paradigm,3.1.3,148.16351323223356,
,,green,grey,grey,green,left,,,,,,,,,,,,,,,,0,47,47,135,,,,,,,,,,,,,,,,,,,,,,,,,,,,,,,,,,,,,left,1.030287400004454,819.3882805000176,None,,,,,,,,,,,,,,,,,,,,,,,,,,,,,,,dominik,001,,2019_Aug_26_1436,MTEC_paradigm,3.1.3,148.16351323223356,
,,yellow,grey,yellow,grey,right,,,,,,,,,,,,,,,,0,48,48,52,,,,,,,,,,,,,,,,,,,,,,,,,,,,,,,,,,,,,right,1.1320976000279188,820.4404717000143,None,,,,,,,,,,,,,,,,,,,,,,,,,,,,,,,dominik,001,,2019_Aug_26_1436,MTEC_paradigm,3.1.3,148.16351323223356,
,,cyan,black,cyan,black,right,,,,,,,,,,,,,,,,0,49,49,44,,,,,,,,,,,,,,,,,,,,,,,,,,,,,,,,,,,,,right,1.8573775999830104,821.595205199992,None,,,,,,,,,,,,,,,,,,,,,,,,,,,,,,,dominik,001,,2019_Aug_26_1436,MTEC_paradigm,3.1.3,148.16351323223356,
,,black,blue,black,blue,right,,,,,,,,,,,,,,,,0,50,50,100,,,,,,,,,,,,,,,,,,,,,,,,,,,,,,,,,,,,,right,1.9431997999781743,823.4703609000135,None,,,,,,,,,,,,,,,,,,,,,,,,,,,,,,,dominik,001,,2019_Aug_26_1436,MTEC_paradigm,3.1.3,148.16351323223356,
,,purple,blue,blue,purple,left,,,,,,,,,,,,,,,,0,51,51,183,,,,,,,,,,,,,,,,,,,,,,,,,,,,,,,,,,,,,left,1.1028935999784153,825.4336729999923,None,,,,,,,,,,,,,,,,,,,,,,,,,,,,,,,dominik,001,,2019_Aug_26_1436,MTEC_paradigm,3.1.3,148.16351323223356,
,,blue,green,blue,green,right,,,,,,,,,,,,,,,,0,52,52,9,,,,,,,,,,,,,,,,,,,,,,,,,,,,,,,,,,,,,right,3.137106299982406,826.5574488000129,None,,,,,,,,,,,,,,,,,,,,,,,,,,,,,,,dominik,001,,2019_Aug_26_1436,MTEC_paradigm,3.1.3,148.16351323223356,
,,cyan,yellow,cyan,yellow,right,,,,,,,,,,,,,,,,0,53,53,39,,,,,,,,,,,,,,,,,,,,,,,,,,,,,,,,,,,,,right,2.827310299995588,829.7172414000088,None,,,,,,,,,,,,,,,,,,,,,,,,,,,,,,,dominik,001,,2019_Aug_26_1436,MTEC_paradigm,3.1.3,148.16351323223356,
,,grey,blue,grey,blue,right,,,,,,,,,,,,,,,,0,54,54,91,,,,,,,,,,,,,,,,,,,,,,,,,,,,,,,,,,,,,right,1.3912525000050664,832.5673069000186,None,,,,,,,,,,,,,,,,,,,,,,,,,,,,,,,dominik,001,,2019_Aug_26_1436,MTEC_paradigm,3.1.3,148.16351323223356,
,,yellow,green,yellow,green,right,,,,,,,,,,,,,,,,0,55,55,56,,,,,,,,,,,,,,,,,,,,,,,,,,,,,,,,,,,,,right,1.3994747000106145,833.9801758000103,None,,,,,,,,,,,,,,,,,,,,,,,,,,,,,,,dominik,001,,2019_Aug_26_1436,MTEC_paradigm,3.1.3,148.16351323223356,
,,red,blue,blue,red,left,,,,,,,,,,,,,,,,0,56,56,109,,,,,,,,,,,,,,,,,,,,,,,,,,,,,,,,,,,,,left,1.011522100016009,835.4000652999966,None,,,,,,,,,,,,,,,,,,,,,,,,,,,,,,,dominik,001,,2019_Aug_26_1436,MTEC_paradigm,3.1.3,148.16351323223356,
,,yellow,magenta,magenta,yellow,left,,,,,,,,,,,,,,,,0,57,57,167,,,,,,,,,,,,,,,,,,,,,,,,,,,,,,,,,,,,,left,1.8199903999920934,836.4325895000075,None,,,,,,,,,,,,,,,,,,,,,,,,,,,,,,,dominik,001,,2019_Aug_26_1436,MTEC_paradigm,3.1.3,148.16351323223356,
,,yellow,orange,yellow,orange,right,,,,,,,,,,,,,,,,0,58,58,49,,,,,,,,,,,,,,,,,,,,,,,,,,,,,,,,,,,,,right,1.22119510002085,838.2703777000133,None,,,,,,,,,,,,,,,,,,,,,,,,,,,,,,,dominik,001,,2019_Aug_26_1436,MTEC_paradigm,3.1.3,148.16351323223356,
,,cyan,brown,cyan,brown,right,,,,,,,,,,,,,,,,0,59,59,42,,,,,,,,,,,,,,,,,,,,,,,,,,,,,,,,,,,,,right,1.396971600013785,839.5115945000143,None,,,,,,,,,,,,,,,,,,,,,,,,,,,,,,,dominik,001,,2019_Aug_26_1436,MTEC_paradigm,3.1.3,148.16351323223356,
,,purple,orange,orange,purple,left,,,,,,,,,,,,,,,,0,60,60,188,,,,,,,,,,,,,,,,,,,,,,,,,,,,,,,,,,,,,left,1.7911244999850169,840.9294357000035,None,,,,,,,,,,,,,,,,,,,,,,,,,,,,,,,dominik,001,,2019_Aug_26_1436,MTEC_paradigm,3.1.3,148.16351323223356,
,,grey,yellow,yellow,grey,left,,,,,,,,,,,,,,,,0,61,61,205,,,,,,,,,,,,,,,,,,,,,,,,,,,,,,,,,,,,,left,1.0371085999940988,842.7374998000159,None,,,,,,,,,,,,,,,,,,,,,,,,,,,,,,,dominik,001,,2019_Aug_26_1436,MTEC_paradigm,3.1.3,148.16351323223356,
,,brown,magenta,brown,magenta,right,,,,,,,,,,,,,,,,0,62,62,84,,,,,,,,,,,,,,,,,,,,,,,,,,,,,,,,,,,,,right,1.1059771000000183,843.7966018000152,None,,,,,,,,,,,,,,,,,,,,,,,,,,,,,,,dominik,001,,2019_Aug_26_1436,MTEC_paradigm,3.1.3,148.16351323223356,
,,magenta,cyan,magenta,cyan,right,,,,,,,,,,,,,,,,0,63,63,29,,,,,,,,,,,,,,,,,,,,,,,,,,,,,,,,,,,,,right,1.202026199985994,844.9246076999989,None,,,,,,,,,,,,,,,,,,,,,,,,,,,,,,,dominik,001,,2019_Aug_26_1436,MTEC_paradigm,3.1.3,148.16351323223356,
,,brown,grey,grey,brown,left,,,,,,,,,,,,,,,,0,64,64,189,,,,,,,,,,,,,,,,,,,,,,,,,,,,,,,,,,,,,left,1.163719400006812,846.1468456000148,None,,,,,,,,,,,,,,,,,,,,,,,,,,,,,,,dominik,001,,2019_Aug_26_1436,MTEC_paradigm,3.1.3,148.16351323223356,
,,magenta,green,magenta,green,right,,,,,,,,,,,,,,,,0,65,65,38,,,,,,,,,,,,,,,,,,,,,,,,,,,,,,,,,,,,,right,1.2411098000011407,847.3314705000084,None,,,,,,,,,,,,,,,,,,,,,,,,,,,,,,,dominik,001,,2019_Aug_26_1436,MTEC_paradigm,3.1.3,148.16351323223356,
,,cyan,black,black,cyan,left,,,,,,,,,,,,,,,,0,66,66,154,,,,,,,,,,,,,,,,,,,,,,,,,,,,,,,,,,,,,left,1.0502249000128359,848.5903855999932,None,,,,,,,,,,,,,,,,,,,,,,,,,,,,,,,dominik,001,,2019_Aug_26_1436,MTEC_paradigm,3.1.3,148.16351323223356,
,,magenta,yellow,yellow,magenta,left,,,,,,,,,,,,,,,,0,67,67,140,,,,,,,,,,,,,,,,,,,,,,,,,,,,,,,,,,,,,left,1.0689776000217535,849.6625740000163,None,,,,,,,,,,,,,,,,,,,,,,,,,,,,,,,dominik,001,,2019_Aug_26_1436,MTEC_paradigm,3.1.3,148.16351323223356,
,,black,yellow,yellow,black,left,,,,,,,,,,,,,,,,0,68,68,214,,,,,,,,,,,,,,,,,,,,,,,,,,,,,,,,,,,,,left,0.990111999999499,850.7465135999955,None,,,,,,,,,,,,,,,,,,,,,,,,,,,,,,,dominik,001,,2019_Aug_26_1436,MTEC_paradigm,3.1.3,148.16351323223356,
,,black,cyan,cyan,black,left,,,,,,,,,,,,,,,,0,69,69,213,,,,,,,,,,,,,,,,,,,,,,,,,,,,,,,,,,,,,left,2.329674000007799,851.7538736000133,None,,,,,,,,,,,,,,,,,,,,,,,,,,,,,,,dominik,001,,2019_Aug_26_1436,MTEC_paradigm,3.1.3,148.16351323223356,
,,yellow,grey,grey,yellow,left,,,,,,,,,,,,,,,,0,70,70,162,,,,,,,,,,,,,,,,,,,,,,,,,,,,,,,,,,,,,left,1.0459216999879573,854.1036424000049,None,,,,,,,,,,,,,,,,,,,,,,,,,,,,,,,dominik,001,,2019_Aug_26_1436,MTEC_paradigm,3.1.3,148.16351323223356,
,,purple,cyan,cyan,purple,left,,,,,,,,,,,,,,,,0,71,71,186,,,,,,,,,,,,,,,,,,,,,,,,,,,,,,,,,,,,,left,2.412154299992835,855.1694100000022,None,,,,,,,,,,,,,,,,,,,,,,,,,,,,,,,dominik,001,,2019_Aug_26_1436,MTEC_paradigm,3.1.3,148.16351323223356,
,,orange,grey,grey,orange,left,,,,,,,,,,,,,,,,0,72,72,171,,,,,,,,,,,,,,,,,,,,,,,,,,,,,,,,,,,,,left,1.885150199988857,857.6074103999999,None,,,,,,,,,,,,,,,,,,,,,,,,,,,,,,,dominik,001,,2019_Aug_26_1436,MTEC_paradigm,3.1.3,148.16351323223356,
,,orange,yellow,orange,yellow,right,,,,,,,,,,,,,,,,0,73,73,68,,,,,,,,,,,,,,,,,,,,,,,,,,,,,,,,,,,,,right,1.495196300005773,859.5093575000064,None,,,,,,,,,,,,,,,,,,,,,,,,,,,,,,,dominik,001,,2019_Aug_26_1436,MTEC_paradigm,3.1.3,148.16351323223356,
,,grey,yellow,grey,yellow,right,,,,,,,,,,,,,,,,0,74,74,95,,,,,,,,,,,,,,,,,,,,,,,,,,,,,,,,,,,,,right,0.9004397999960929,861.0251184999943,None,,,,,,,,,,,,,,,,,,,,,,,,,,,,,,,dominik,001,,2019_Aug_26_1436,MTEC_paradigm,3.1.3,148.16351323223356,
,,red,purple,red,purple,right,,,,,,,,,,,,,,,,0,75,75,5,,,,,,,,,,,,,,,,,,,,,,,,,,,,,,,,,,,,,right,1.015893399977358,861.9436606999952,None,,,,,,,,,,,,,,,,,,,,,,,,,,,,,,,dominik,001,,2019_Aug_26_1436,MTEC_paradigm,3.1.3,148.16351323223356,
,,blue,black,blue,black,right,,,,,,,,,,,,,,,,0,76,76,17,,,,,,,,,,,,,,,,,,,,,,,,,,,,,,,,,,,,,right,1.1749886000179686,862.9776001000137,None,,,,,,,,,,,,,,,,,,,,,,,,,,,,,,,dominik,001,,2019_Aug_26_1436,MTEC_paradigm,3.1.3,148.16351323223356,
,,blue,purple,purple,blue,left,,,,,,,,,,,,,,,,0,77,77,124,,,,,,,,,,,,,,,,,,,,,,,,,,,,,,,,,,,,,left,1.3920534999924712,864.168501600012,None,,,,,,,,,,,,,,,,,,,,,,,,,,,,,,,dominik,001,,2019_Aug_26_1436,MTEC_paradigm,3.1.3,148.16351323223356,
,,purple,black,black,purple,left,,,,,,,,,,,,,,,,0,78,78,181,,,,,,,,,,,,,,,,,,,,,,,,,,,,,,,,,,,,,left,1.3481693000067025,865.5793928000203,None,,,,,,,,,,,,,,,,,,,,,,,,,,,,,,,dominik,001,,2019_Aug_26_1436,MTEC_paradigm,3.1.3,148.16351323223356,
,,cyan,grey,cyan,grey,right,,,,,,,,,,,,,,,,0,79,79,43,,,,,,,,,,,,,,,,,,,,,,,,,,,,,,,,,,,,,right,1.8483683000085875,866.9492611000023,None,,,,,,,,,,,,,,,,,,,,,,,,,,,,,,,dominik,001,,2019_Aug_26_1436,MTEC_paradigm,3.1.3,148.16351323223356,
,,orange,red,orange,red,right,,,,,,,,,,,,,,,,0,80,80,63,,,,,,,,,,,,,,,,,,,,,,,,,,,,,,,,,,,,,right,1.5327654000138864,868.8188384000096,None,,,,,,,,,,,,,,,,,,,,,,,,,,,,,,,dominik,001,,2019_Aug_26_1436,MTEC_paradigm,3.1.3,148.16351323223356,
,,orange,purple,orange,purple,right,,,,,,,,,,,,,,,,0,81,81,59,,,,,,,,,,,,,,,,,,,,,,,,,,,,,,,,,,,,,right,1.5600346999999601,870.3655237999919,None,,,,,,,,,,,,,,,,,,,,,,,,,,,,,,,dominik,001,,2019_Aug_26_1436,MTEC_paradigm,3.1.3,148.16351323223356,
,,brown,red,red,brown,left,,,,,,,,,,,,,,,,0,82,82,191,,,,,,,,,,,,,,,,,,,,,,,,,,,,,,,,,,,,,left,1.115945899975486,871.9446093000006,None,,,,,,,,,,,,,,,,,,,,,,,,,,,,,,,dominik,001,,2019_Aug_26_1436,MTEC_paradigm,3.1.3,148.16351323223356,
,,red,grey,red,grey,right,,,,,,,,,,,,,,,,0,83,83,7,,,,,,,,,,,,,,,,,,,,,,,,,,,,,,,,,,,,,right,0.9222414999967441,873.0763292000047,None,,,,,,,,,,,,,,,,,,,,,,,,,,,,,,,dominik,001,,2019_Aug_26_1436,MTEC_paradigm,3.1.3,148.16351323223356,
,,magenta,black,black,magenta,left,,,,,,,,,,,,,,,,0,84,84,145,,,,,,,,,,,,,,,,,,,,,,,,,,,,,,,,,,,,,left,1.1970724999846425,874.0205476999981,None,,,,,,,,,,,,,,,,,,,,,,,,,,,,,,,dominik,001,,2019_Aug_26_1436,MTEC_paradigm,3.1.3,148.16351323223356,
,,yellow,blue,blue,yellow,left,,,,,,,,,,,,,,,,0,85,85,165,,,,,,,,,,,,,,,,,,,,,,,,,,,,,,,,,,,,,left,2.4618699999991804,875.238708799996,None,,,,,,,,,,,,,,,,,,,,,,,,,,,,,,,dominik,001,,2019_Aug_26_1436,MTEC_paradigm,3.1.3,148.16351323223356,
,,green,brown,green,brown,right,,,,,,,,,,,,,,,,0,86,86,24,,,,,,,,,,,,,,,,,,,,,,,,,,,,,,,,,,,,,right,2.538205499993637,877.7203790000058,None,,,,,,,,,,,,,,,,,,,,,,,,,,,,,,,dominik,001,,2019_Aug_26_1436,MTEC_paradigm,3.1.3,148.16351323223356,
,,grey,red,grey,red,right,,,,,,,,,,,,,,,,0,87,87,90,,,,,,,,,,,,,,,,,,,,,,,,,,,,,,,,,,,,,right,0.990978299989365,880.2785942000046,None,,,,,,,,,,,,,,,,,,,,,,,,,,,,,,,dominik,001,,2019_Aug_26_1436,MTEC_paradigm,3.1.3,148.16351323223356,
,,orange,red,red,orange,left,,,,,,,,,,,,,,,,0,88,88,173,,,,,,,,,,,,,,,,,,,,,,,,,,,,,,,,,,,,,left,0.7550655000086408,881.2924997000082,None,,,,,,,,,,,,,,,,,,,,,,,,,,,,,,,dominik,001,,2019_Aug_26_1436,MTEC_paradigm,3.1.3,148.16351323223356,
,,red,black,black,red,left,,,,,,,,,,,,,,,,0,89,89,118,,,,,,,,,,,,,,,,,,,,,,,,,,,,,,,,,,,,,left,1.1190615000086837,882.0665102000057,None,,,,,,,,,,,,,,,,,,,,,,,,,,,,,,,dominik,001,,2019_Aug_26_1436,MTEC_paradigm,3.1.3,148.16351323223356,
,,blue,magenta,magenta,blue,left,,,,,,,,,,,,,,,,0,90,90,120,,,,,,,,,,,,,,,,,,,,,,,,,,,,,,,,,,,,,left,1.4590611000021454,883.2065160000056,None,,,,,,,,,,,,,,,,,,,,,,,,,,,,,,,dominik,001,,2019_Aug_26_1436,MTEC_paradigm,3.1.3,148.16351323223356,
,,brown,yellow,brown,yellow,right,,,,,,,,,,,,,,,,0,91,91,86,,,,,,,,,,,,,,,,,,,,,,,,,,,,,,,,,,,,,right,1.1530619000259321,884.6845051000128,None,,,,,,,,,,,,,,,,,,,,,,,,,,,,,,,dominik,001,,2019_Aug_26_1436,MTEC_paradigm,3.1.3,148.16351323223356,
,,grey,purple,grey,purple,right,,,,,,,,,,,,,,,,0,92,92,97,,,,,,,,,,,,,,,,,,,,,,,,,,,,,,,,,,,,,right,1.5492032000038307,885.8574178999988,None,,,,,,,,,,,,,,,,,,,,,,,,,,,,,,,dominik,001,,2019_Aug_26_1436,MTEC_paradigm,3.1.3,148.16351323223356,
,,grey,red,red,grey,left,,,,,,,,,,,,,,,,0,93,93,200,,,,,,,,,,,,,,,,,,,,,,,,,,,,,,,,,,,,,left,0.8822272999968845,887.4223707999918,None,,,,,,,,,,,,,,,,,,,,,,,,,,,,,,,dominik,001,,2019_Aug_26_1436,MTEC_paradigm,3.1.3,148.16351323223356,
,,green,brown,brown,green,left,,,,,,,,,,,,,,,,0,94,94,134,,,,,,,,,,,,,,,,,,,,,,,,,,,,,,,,,,,,,left,1.126157000020612,888.3264031000144,None,,,,,,,,,,,,,,,,,,,,,,,,,,,,,,,dominik,001,,2019_Aug_26_1436,MTEC_paradigm,3.1.3,148.16351323223356,
,,brown,magenta,magenta,brown,left,,,,,,,,,,,,,,,,0,95,95,194,,,,,,,,,,,,,,,,,,,,,,,,,,,,,,,,,,,,,left,2.4231916000135243,889.475363000005,None,,,,,,,,,,,,,,,,,,,,,,,,,,,,,,,dominik,001,,2019_Aug_26_1436,MTEC_paradigm,3.1.3,148.16351323223356,
,,orange,black,black,orange,left,,,,,,,,,,,,,,,,0,96,96,172,,,,,,,,,,,,,,,,,,,,,,,,,,,,,,,,,,,,,left,1.6600930000131484,891.9194769000169,None,,,,,,,,,,,,,,,,,,,,,,,,,,,,,,,dominik,001,,2019_Aug_26_1436,MTEC_paradigm,3.1.3,148.16351323223356,
,,red,grey,grey,red,left,,,,,,,,,,,,,,,,0,97,97,117,,,,,,,,,,,,,,,,,,,,,,,,,,,,,,,,,,,,,right,0.8100773000041954,893.5974748000153,None,,,,,,,,,,,,,,,,,,,,,,,,,,,,,,,dominik,001,,2019_Aug_26_1436,MTEC_paradigm,3.1.3,148.16351323223356,
,,green,red,green,red,right,,,,,,,,,,,,,,,,0,98,98,27,,,,,,,,,,,,,,,,,,,,,,,,,,,,,,,,,,,,,right,2.538229500001762,894.4243940000015,None,,,,,,,,,,,,,,,,,,,,,,,,,,,,,,,dominik,001,,2019_Aug_26_1436,MTEC_paradigm,3.1.3,148.16351323223356,
,,purple,green,purple,green,right,,,,,,,,,,,,,,,,0,99,99,74,,,,,,,,,,,,,,,,,,,,,,,,,,,,,,,,,,,,,right,1.2008552000042982,896.9856984000071,None,,,,,,,,,,,,,,,,,,,,,,,,,,,,,,,dominik,001,,2019_Aug_26_1436,MTEC_paradigm,3.1.3,148.16351323223356,
,,green,purple,purple,green,left,,,,,,,,,,,,,,,,0,100,100,133,,,,,,,,,,,,,,,,,,,,,,,,,,,,,,,,,,,,,left,0.9311078999890015,898.203502599994,None,,,,,,,,,,,,,,,,,,,,,,,,,,,,,,,dominik,001,,2019_Aug_26_1436,MTEC_paradigm,3.1.3,148.16351323223356,
,,blue,cyan,blue,cyan,right,,,,,,,,,,,,,,,,0,101,101,11,,,,,,,,,,,,,,,,,,,,,,,,,,,,,,,,,,,,,right,1.2248685999948066,899.1545636999945,None,,,,,,,,,,,,,,,,,,,,,,,,,,,,,,,dominik,001,,2019_Aug_26_1436,MTEC_paradigm,3.1.3,148.16351323223356,
,,cyan,red,red,cyan,left,,,,,,,,,,,,,,,,0,102,102,155,,,,,,,,,,,,,,,,,,,,,,,,,,,,,,,,,,,,,left,1.357427299983101,900.3981273999962,None,,,,,,,,,,,,,,,,,,,,,,,,,,,,,,,dominik,001,,2019_Aug_26_1436,MTEC_paradigm,3.1.3,148.16351323223356,
,,blue,brown,blue,brown,right,,,,,,,,,,,,,,,,0,103,103,15,,,,,,,,,,,,,,,,,,,,,,,,,,,,,,,,,,,,,right,1.8261711999948602,901.7724367000046,None,,,,,,,,,,,,,,,,,,,,,,,,,,,,,,,dominik,001,,2019_Aug_26_1436,MTEC_paradigm,3.1.3,148.16351323223356,
,,red,brown,brown,red,left,,,,,,,,,,,,,,,,0,104,104,116,,,,,,,,,,,,,,,,,,,,,,,,,,,,,,,,,,,,,left,0.9821912000188604,903.6193575999932,None,,,,,,,,,,,,,,,,,,,,,,,,,,,,,,,dominik,001,,2019_Aug_26_1436,MTEC_paradigm,3.1.3,148.16351323223356,
,,grey,magenta,grey,magenta,right,,,,,,,,,,,,,,,,0,105,105,93,,,,,,,,,,,,,,,,,,,,,,,,,,,,,,,,,,,,,right,1.083270100003574,904.6262835999951,None,,,,,,,,,,,,,,,,,,,,,,,,,,,,,,,dominik,001,,2019_Aug_26_1436,MTEC_paradigm,3.1.3,148.16351323223356,
,,green,black,black,green,left,,,,,,,,,,,,,,,,0,106,106,136,,,,,,,,,,,,,,,,,,,,,,,,,,,,,,,,,,,,,left,0.8634806000045501,905.7310871999944,None,,,,,,,,,,,,,,,,,,,,,,,,,,,,,,,dominik,001,,2019_Aug_26_1436,MTEC_paradigm,3.1.3,148.16351323223356,
,,blue,yellow,yellow,blue,left,,,,,,,,,,,,,,,,0,107,107,122,,,,,,,,,,,,,,,,,,,,,,,,,,,,,,,,,,,,,left,0.9390702999953646,906.6145380999951,None,,,,,,,,,,,,,,,,,,,,,,,,,,,,,,,dominik,001,,2019_Aug_26_1436,MTEC_paradigm,3.1.3,148.16351323223356,
,,red,cyan,cyan,red,left,,,,,,,,,,,,,,,,0,108,108,112,,,,,,,,,,,,,,,,,,,,,,,,,,,,,,,,,,,,,left,1.1271031000069343,907.5704606999934,None,,,,,,,,,,,,,,,,,,,,,,,,,,,,,,,dominik,001,,2019_Aug_26_1436,MTEC_paradigm,3.1.3,148.16351323223356,
,,cyan,magenta,magenta,cyan,left,,,,,,,,,,,,,,,,0,109,109,158,,,,,,,,,,,,,,,,,,,,,,,,,,,,,,,,,,,,,left,1.2341323000146076,908.7174345999956,None,,,,,,,,,,,,,,,,,,,,,,,,,,,,,,,dominik,001,,2019_Aug_26_1436,MTEC_paradigm,3.1.3,148.16351323223356,
,,red,brown,red,brown,right,,,,,,,,,,,,,,,,0,110,110,6,,,,,,,,,,,,,,,,,,,,,,,,,,,,,,,,,,,,,right,3.2270368000026792,909.9715308000159,None,,,,,,,,,,,,,,,,,,,,,,,,,,,,,,,dominik,001,,2019_Aug_26_1436,MTEC_paradigm,3.1.3,148.16351323223356,
,,brown,red,brown,red,right,,,,,,,,,,,,,,,,0,111,111,81,,,,,,,,,,,,,,,,,,,,,,,,,,,,,,,,,,,,,right,1.5520811000023969,913.2194829999935,None,,,,,,,,,,,,,,,,,,,,,,,,,,,,,,,dominik,001,,2019_Aug_26_1436,MTEC_paradigm,3.1.3,148.16351323223356,
,,red,orange,red,orange,right,,,,,,,,,,,,,,,,0,112,112,4,,,,,,,,,,,,,,,,,,,,,,,,,,,,,,,,,,,,,right,1.2292107999965083,914.7913439999975,None,,,,,,,,,,,,,,,,,,,,,,,,,,,,,,,dominik,001,,2019_Aug_26_1436,MTEC_paradigm,3.1.3,148.16351323223356,
,,brown,orange,brown,orange,right,,,,,,,,,,,,,,,,0,113,113,87,,,,,,,,,,,,,,,,,,,,,,,,,,,,,,,,,,,,,right,1.605078799999319,916.0364812000189,None,,,,,,,,,,,,,,,,,,,,,,,,,,,,,,,dominik,001,,2019_Aug_26_1436,MTEC_paradigm,3.1.3,148.16351323223356,
,,black,blue,blue,black,left,,,,,,,,,,,,,,,,0,114,114,210,,,,,,,,,,,,,,,,,,,,,,,,,,,,,,,,,,,,,left,1.1871826999995392,917.662381800008,None,,,,,,,,,,,,,,,,,,,,,,,,,,,,,,,dominik,001,,2019_Aug_26_1436,MTEC_paradigm,3.1.3,148.16351323223356,
,,brown,orange,orange,brown,left,,,,,,,,,,,,,,,,0,115,115,197,,,,,,,,,,,,,,,,,,,,,,,,,,,,,,,,,,,,,left,1.1771265999996103,918.8704301000107,None,,,,,,,,,,,,,,,,,,,,,,,,,,,,,,,dominik,001,,2019_Aug_26_1436,MTEC_paradigm,3.1.3,148.16351323223356,
,,grey,brown,grey,brown,right,,,,,,,,,,,,,,,,0,116,116,98,,,,,,,,,,,,,,,,,,,,,,,,,,,,,,,,,,,,,right,2.1660835999937262,920.065487600019,None,,,,,,,,,,,,,,,,,,,,,,,,,,,,,,,dominik,001,,2019_Aug_26_1436,MTEC_paradigm,3.1.3,148.16351323223356,
,,cyan,orange,orange,cyan,left,,,,,,,,,,,,,,,,0,117,117,150,,,,,,,,,,,,,,,,,,,,,,,,,,,,,,,,,,,,,left,1.3459498999873176,922.2496005000139,None,,,,,,,,,,,,,,,,,,,,,,,,,,,,,,,dominik,001,,2019_Aug_26_1436,MTEC_paradigm,3.1.3,148.16351323223356,
,,black,grey,grey,black,left,,,,,,,,,,,,,,,,0,118,118,218,,,,,,,,,,,,,,,,,,,,,,,,,,,,,,,,,,,,,left,1.0560569999797735,923.6124965999916,None,,,,,,,,,,,,,,,,,,,,,,,,,,,,,,,dominik,001,,2019_Aug_26_1436,MTEC_paradigm,3.1.3,148.16351323223356,
,,red,yellow,yellow,red,left,,,,,,,,,,,,,,,,0,119,119,113,,,,,,,,,,,,,,,,,,,,,,,,,,,,,,,,,,,,,left,1.5015078999858815,924.6890487000055,None,,,,,,,,,,,,,,,,,,,,,,,,,,,,,,,dominik,001,,2019_Aug_26_1436,MTEC_paradigm,3.1.3,148.16351323223356,
,,blue,cyan,cyan,blue,left,,,,,,,,,,,,,,,,0,120,120,121,,,,,,,,,,,,,,,,,,,,,,,,,,,,,,,,,,,,,left,2.7353874999971595,926.2131730999972,None,,,,,,,,,,,,,,,,,,,,,,,,,,,,,,,dominik,001,,2019_Aug_26_1436,MTEC_paradigm,3.1.3,148.16351323223356,
,,grey,cyan,grey,cyan,right,,,,,,,,,,,,,,,,0,121,121,94,,,,,,,,,,,,,,,,,,,,,,,,,,,,,,,,,,,,,right,1.0113264999818057,928.9722437000019,None,,,,,,,,,,,,,,,,,,,,,,,,,,,,,,,dominik,001,,2019_Aug_26_1436,MTEC_paradigm,3.1.3,148.16351323223356,
,,black,orange,black,orange,right,,,,,,,,,,,,,,,,0,122,122,105,,,,,,,,,,,,,,,,,,,,,,,,,,,,,,,,,,,,,right,1.9191236999758985,930.004445300001,None,,,,,,,,,,,,,,,,,,,,,,,,,,,,,,,dominik,001,,2019_Aug_26_1436,MTEC_paradigm,3.1.3,148.16351323223356,
,,brown,grey,brown,grey,right,,,,,,,,,,,,,,,,0,123,123,79,,,,,,,,,,,,,,,,,,,,,,,,,,,,,,,,,,,,,right,0.9378816999960691,931.9446942000068,None,,,,,,,,,,,,,,,,,,,,,,,,,,,,,,,dominik,001,,2019_Aug_26_1436,MTEC_paradigm,3.1.3,148.16351323223356,
,,purple,blue,purple,blue,right,,,,,,,,,,,,,,,,0,124,124,73,,,,,,,,,,,,,,,,,,,,,,,,,,,,,,,,,,,,,left,2.5030928000051063,932.9024890000001,None,,,,,,,,,,,,,,,,,,,,,,,,,,,,,,,dominik,001,,2019_Aug_26_1436,MTEC_paradigm,3.1.3,148.16351323223356,
,,cyan,purple,cyan,purple,right,,,,,,,,,,,,,,,,0,125,125,41,,,,,,,,,,,,,,,,,,,,,,,,,,,,,,,,,,,,,right,2.813085300003877,935.4264735000033,None,,,,,,,,,,,,,,,,,,,,,,,,,,,,,,,dominik,001,,2019_Aug_26_1436,MTEC_paradigm,3.1.3,148.16351323223356,
,,blue,magenta,blue,magenta,right,,,,,,,,,,,,,,,,0,126,126,10,,,,,,,,,,,,,,,,,,,,,,,,,,,,,,,,,,,,,right,0.9922183000016958,938.2623377999989,None,,,,,,,,,,,,,,,,,,,,,,,,,,,,,,,dominik,001,,2019_Aug_26_1436,MTEC_paradigm,3.1.3,148.16351323223356,
,,red,magenta,red,magenta,right,,,,,,,,,,,,,,,,0,127,127,1,,,,,,,,,,,,,,,,,,,,,,,,,,,,,,,,,,,,,right,0.796707300003618,939.2740134000196,None,,,,,,,,,,,,,,,,,,,,,,,,,,,,,,,dominik,001,,2019_Aug_26_1436,MTEC_paradigm,3.1.3,148.16351323223356,
,,magenta,grey,magenta,grey,right,,,,,,,,,,,,,,,,0,128,128,34,,,,,,,,,,,,,,,,,,,,,,,,,,,,,,,,,,,,,right,1.432198199996492,940.0963713999954,None,,,,,,,,,,,,,,,,,,,,,,,,,,,,,,,dominik,001,,2019_Aug_26_1436,MTEC_paradigm,3.1.3,148.16351323223356,
,,grey,orange,orange,grey,left,,,,,,,,,,,,,,,,0,129,129,206,,,,,,,,,,,,,,,,,,,,,,,,,,,,,,,,,,,,,left,2.020911300001899,941.5456424000149,None,,,,,,,,,,,,,,,,,,,,,,,,,,,,,,,dominik,001,,2019_Aug_26_1436,MTEC_paradigm,3.1.3,148.16351323223356,
,,orange,black,orange,black,right,,,,,,,,,,,,,,,,0,130,130,62,,,,,,,,,,,,,,,,,,,,,,,,,,,,,,,,,,,,,right,0.9492091999854892,943.5823454000056,None,,,,,,,,,,,,,,,,,,,,,,,,,,,,,,,dominik,001,,2019_Aug_26_1436,MTEC_paradigm,3.1.3,148.16351323223356,
,,purple,yellow,purple,yellow,right,,,,,,,,,,,,,,,,0,131,131,77,,,,,,,,,,,,,,,,,,,,,,,,,,,,,,,,,,,,,right,1.5832676000136416,944.5542836000095,None,,,,,,,,,,,,,,,,,,,,,,,,,,,,,,,dominik,001,,2019_Aug_26_1436,MTEC_paradigm,3.1.3,148.16351323223356,
,,orange,grey,orange,grey,right,,,,,,,,,,,,,,,,0,132,132,61,,,,,,,,,,,,,,,,,,,,,,,,,,,,,,,,,,,,,right,0.9523014000151306,946.1602734000189,None,,,,,,,,,,,,,,,,,,,,,,,,,,,,,,,dominik,001,,2019_Aug_26_1436,MTEC_paradigm,3.1.3,148.16351323223356,
,,purple,cyan,purple,cyan,right,,,,,,,,,,,,,,,,0,133,133,76,,,,,,,,,,,,,,,,,,,,,,,,,,,,,,,,,,,,,right,1.0030649999971502,947.132485900016,None,,,,,,,,,,,,,,,,,,,,,,,,,,,,,,,dominik,001,,2019_Aug_26_1436,MTEC_paradigm,3.1.3,148.16351323223356,
,,black,red,black,red,right,,,,,,,,,,,,,,,,0,134,134,99,,,,,,,,,,,,,,,,,,,,,,,,,,,,,,,,,,,,,right,1.1133485999889672,948.1562063000165,None,,,,,,,,,,,,,,,,,,,,,,,,,,,,,,,dominik,001,,2019_Aug_26_1436,MTEC_paradigm,3.1.3,148.16351323223356,
,,magenta,orange,magenta,orange,right,,,,,,,,,,,,,,,,0,135,135,31,,,,,,,,,,,,,,,,,,,,,,,,,,,,,,,,,,,,,left,1.101889800018398,949.2936582000111,None,,,,,,,,,,,,,,,,,,,,,,,,,,,,,,,dominik,001,,2019_Aug_26_1436,MTEC_paradigm,3.1.3,148.16351323223356,
,,purple,yellow,yellow,purple,left,,,,,,,,,,,,,,,,0,136,136,187,,,,,,,,,,,,,,,,,,,,,,,,,,,,,,,,,,,,,left,2.6909569000126794,950.4145915000117,None,,,,,,,,,,,,,,,,,,,,,,,,,,,,,,,dominik,001,,2019_Aug_26_1436,MTEC_paradigm,3.1.3,148.16351323223356,
,,magenta,brown,magenta,brown,right,,,,,,,,,,,,,,,,0,137,137,33,,,,,,,,,,,,,,,,,,,,,,,,,,,,,,,,,,,,,right,1.4258967000059783,953.1246522000001,None,,,,,,,,,,,,,,,,,,,,,,,,,,,,,,,dominik,001,,2019_Aug_26_1436,MTEC_paradigm,3.1.3,148.16351323223356,
,,orange,blue,blue,orange,left,,,,,,,,,,,,,,,,0,138,138,174,,,,,,,,,,,,,,,,,,,,,,,,,,,,,,,,,,,,,left,2.7733548000105657,954.5742056000163,None,,,,,,,,,,,,,,,,,,,,,,,,,,,,,,,dominik,001,,2019_Aug_26_1436,MTEC_paradigm,3.1.3,148.16351323223356,
,,purple,green,green,purple,left,,,,,,,,,,,,,,,,0,139,139,184,,,,,,,,,,,,,,,,,,,,,,,,,,,,,,,,,,,,,left,1.0031092999852262,957.3701950999966,None,,,,,,,,,,,,,,,,,,,,,,,,,,,,,,,dominik,001,,2019_Aug_26_1436,MTEC_paradigm,3.1.3,148.16351323223356,
,,yellow,brown,brown,yellow,left,,,,,,,,,,,,,,,,0,140,140,161,,,,,,,,,,,,,,,,,,,,,,,,,,,,,,,,,,,,,left,1.9050792000198271,958.3984832999995,None,,,,,,,,,,,,,,,,,,,,,,,,,,,,,,,dominik,001,,2019_Aug_26_1436,MTEC_paradigm,3.1.3,148.16351323223356,
,,cyan,green,green,cyan,left,,,,,,,,,,,,,,,,0,141,141,157,,,,,,,,,,,,,,,,,,,,,,,,,,,,,,,,,,,,,left,3.853980300016701,960.3215734999976,None,,,,,,,,,,,,,,,,,,,,,,,,,,,,,,,dominik,001,,2019_Aug_26_1436,MTEC_paradigm,3.1.3,148.16351323223356,
,,green,red,red,green,left,,,,,,,,,,,,,,,,0,142,142,137,,,,,,,,,,,,,,,,,,,,,,,,,,,,,,,,,,,,,left,1.1853649000113364,964.1981802000082,None,,,,,,,,,,,,,,,,,,,,,,,,,,,,,,,dominik,001,,2019_Aug_26_1436,MTEC_paradigm,3.1.3,148.16351323223356,
,,black,brown,black,brown,right,,,,,,,,,,,,,,,,0,143,143,107,,,,,,,,,,,,,,,,,,,,,,,,,,,,,,,,,,,,,right,1.0010564000112936,965.4045021999918,None,,,,,,,,,,,,,,,,,,,,,,,,,,,,,,,dominik,001,,2019_Aug_26_1436,MTEC_paradigm,3.1.3,148.16351323223356,
,,orange,yellow,yellow,orange,left,,,,,,,,,,,,,,,,0,144,144,178,,,,,,,,,,,,,,,,,,,,,,,,,,,,,,,,,,,,,left,4.386784499976784,966.4237739999953,None,,,,,,,,,,,,,,,,,,,,,,,,,,,,,,,dominik,001,,2019_Aug_26_1436,MTEC_paradigm,3.1.3,148.16351323223356,
,,blue,grey,grey,blue,left,,,,,,,,,,,,,,,,0,145,145,126,,,,,,,,,,,,,,,,,,,,,,,,,,,,,,,,,,,,,left,0.8070273000048473,970.8335194000101,None,,,,,,,,,,,,,,,,,,,,,,,,,,,,,,,dominik,001,,2019_Aug_26_1436,MTEC_paradigm,3.1.3,148.16351323223356,
