p_path	p_weight	p_name	p_description	p_type	p_pictures	p_pic_width	p_pic_height	p_new_width	p_new_height	p_new_size	n_path	n_weight	n_name	n_description	n_type	n_pictures	n_pic_width	n_pic_height	n_new_width	n_new_height	n_new_size	emotion_trials_p.thisRepN	emotion_trials_p.thisTrialN	emotion_trials_p.thisN	emotion_trials_p.thisIndex	emotion_evaluation_p.thisRepN	emotion_evaluation_p.thisTrialN	emotion_evaluation_p.thisN	emotion_evaluation_p.thisIndex	emotion_trials_n.thisRepN	emotion_trials_n.thisTrialN	emotion_trials_n.thisN	emotion_trials_n.thisIndex	emotion_evaluation_n.thisRepN	emotion_evaluation_n.thisTrialN	emotion_evaluation_n.thisN	emotion_evaluation_n.thisIndex	start_session_three	start_emotion_one	image_emotion_p.started	image_emotion_p.stopped	end_emotion_one	rating_emotion_p_eval_o.response	rating_emotion_p_eval_o.rt	rating_emotion_p_eval_t.response	rating_emotion_p_eval_t.rt	key_resp_cooldown_instructions.keys	key_resp_cooldown_instructions.rt	start_cooldown_measurement	end_cooldown_measurement	rating_cooldown_evaluation.response	rating_cooldown_evaluation.rt	start_emotion_two	image_emotion_n.started	image_emotion_n.stopped	end_emotion_two	rating_emotion_n_eval_o.response	rating_emotion_n_eval_o.rt	text_emotion_n_eval_t.started	text_emotion_n_eval_t.stopped	rating_emotion_n_eval_t.response	rating_emotion_n_eval_t.rt	end_session_three	participant	session	date	expName	psychopyVersion	frameRate
Resources\Pictures\	Positive\	7325	girl and watermelon	.jpg	Resources\Pictures\Positive\7325.jpg	1024	768	01. Sep	1	(1.9, 1)												0	0	0	22													2019-09-18_10:21:37	2019-09-18_10:22:41	7.603.300.989.183.110	None																							lw	3	2019_Sep_18_1021	EmotionSession	03.01.2003	6.006.293.950.031.180
Resources\Pictures\	Positive\	2311	mother daughter	.jpg	Resources\Pictures\Positive\2311.jpg	1024	768	17.999.999.999.999.900	1	(1.8, 1)												0	1	1	13															859.634.257.378.766	None																							lw	3	2019_Sep_18_1021	EmotionSession	03.01.2003	6.006.293.950.031.180
Resources\Pictures\	Positive\	2091	children and kitten	.jpg	Resources\Pictures\Positive\2091.jpg	1024	768	01. Sep	1	(1.9, 1)												0	2	2	10															959.530.722.533.782	None																							lw	3	2019_Sep_18_1021	EmotionSession	03.01.2003	6.006.293.950.031.180
Resources\Pictures\	Positive\	8497	family on rollercoaster	.jpg	Resources\Pictures\Positive\8497.jpg	1024	768	01. Sep	1	(1.9, 1)												0	3	3	26															10.594.410.202.103.200	None																							lw	3	2019_Sep_18_1021	EmotionSession	03.01.2003	6.006.293.950.031.180
Resources\Pictures\	Positive\	1942	group of turtles	.jpg	Resources\Pictures\Positive\1942.jpg	1024	768	01. Sep	1	(1.9, 1)												0	4	4	6															1.159.374.033.600.820	None																							lw	3	2019_Sep_18_1021	EmotionSession	03.01.2003	6.006.293.950.031.180
Resources\Pictures\	Positive\	2304	smiling girl	.jpg	Resources\Pictures\Positive\2304.jpg	1024	768	17.999.999.999.999.900	1	(1.8, 1)												0	5	5	12															12.592.403.334.482.400	None																							lw	3	2019_Sep_18_1021	EmotionSession	03.01.2003	6.006.293.950.031.180
Resources\Pictures\	Positive\	1811	group of apes	.jpg	Resources\Pictures\Positive\1811.jpg	1024	768	01. Sep	1	(1.9, 1)												0	6	6	5															13.591.911.089.569.200	None																							lw	3	2019_Sep_18_1021	EmotionSession	03.01.2003	6.006.293.950.031.180
Resources\Pictures\	Positive\	1340	women and parrots	.jpg	Resources\Pictures\Positive\1340.jpg	1024	768	01. Sep	1	(1.9, 1)												0	7	7	21															14.591.450.375.295.600	None																							lw	3	2019_Sep_18_1021	EmotionSession	03.01.2003	6.006.293.950.031.180
Resources\Pictures\	Positive\	5760	flowers	.jpg	Resources\Pictures\Positive\5760.jpg	1024	768	01. Sep	1	(1.9, 1)												0	8	8	18															15.590.804.999.846.300	None																							lw	3	2019_Sep_18_1021	EmotionSession	03.01.2003	6.006.293.950.031.180
Resources\Pictures\	Positive\	5833	sunny beach	.jpg	Resources\Pictures\Positive\5833.jpg	1024	768	01. Sep	1	(1.9, 1)												0	9	9	20															16.589.701.982.120.900	None																							lw	3	2019_Sep_18_1021	EmotionSession	03.01.2003	6.006.293.950.031.180
Resources\Pictures\	Positive\	8380	team medals	.jpg	Resources\Pictures\Positive\8380.jpg	1024	768	01. Sep	1	(1.9, 1)												0	10	10	25															17.588.870.068.164.100	None																							lw	3	2019_Sep_18_1021	EmotionSession	03.01.2003	6.006.293.950.031.180
Resources\Pictures\	Positive\	5831	father and son beach	.jpg	Resources\Pictures\Positive\5831.jpg	1024	768	01. Sep	1	(1.9, 1)												0	11	11	19															18.588.050.100.863.800	None																							lw	3	2019_Sep_18_1021	EmotionSession	03.01.2003	6.006.293.950.031.180
Resources\Pictures\	Positive\	1460	tiger cub	.jpg	Resources\Pictures\Positive\1460.jpg	1024	768	01. Sep	1	(1.9, 1)												0	12	12	1															19.587.475.424.020.900	None																							lw	3	2019_Sep_18_1021	EmotionSession	03.01.2003	6.006.293.950.031.180
Resources\Pictures\	Positive\	7502	disney land	.jpg	Resources\Pictures\Positive\7502.jpg	1024	768	01. Sep	1	(1.9, 1)												0	13	13	23															20.586.203.617.106.100	None																							lw	3	2019_Sep_18_1021	EmotionSession	03.01.2003	6.006.293.950.031.180
Resources\Pictures\	Positive\	2005	smiling man	.jpg	Resources\Pictures\Positive\2005.jpg	1024	768	01. Sep	1	(1.9, 1)												0	14	14	28															2.158.499.819.946.810	None																							lw	3	2019_Sep_18_1021	EmotionSession	03.01.2003	6.006.293.950.031.180
Resources\Pictures\	Positive\	1710	three dogs	.jpg	Resources\Pictures\Positive\1710.jpg	1024	768	01. Sep	1	(1.9, 1)												0	15	15	3															22.584.677.517.075.100	None																							lw	3	2019_Sep_18_1021	EmotionSession	03.01.2003	6.006.293.950.031.180
Resources\Pictures\	Positive\	1750	rabit	.jpg	Resources\Pictures\Positive\1750.jpg	1024	768	01. Sep	1	(1.9, 1)												0	16	16	4															23.583.769.443.183.300	None																							lw	3	2019_Sep_18_1021	EmotionSession	03.01.2003	6.006.293.950.031.180
Resources\Pictures\	Positive\	2040	baby on belly	.jpg	Resources\Pictures\Positive\2040.jpg	1024	768	01. Sep	1	(1.9, 1)												0	17	17	7															245.830.144.144.943	None																							lw	3	2019_Sep_18_1021	EmotionSession	03.01.2003	6.006.293.950.031.180
Resources\Pictures\	Positive\	2058	baby holding hand	.jpg	Resources\Pictures\Positive\2058.jpg	1024	768	01. Sep	1	(1.9, 1)												0	18	18	30															25.582.082.575.289.400	None																							lw	3	2019_Sep_18_1021	EmotionSession	03.01.2003	6.006.293.950.031.180
Resources\Pictures\	Positive\	2071	baby smiling	.jpg	Resources\Pictures\Positive\2071.jpg	1024	768	01. Sep	1	(1.9, 1)												0	19	19	31															26.581.028.325.522.400	None																							lw	3	2019_Sep_18_1021	EmotionSession	03.01.2003	6.006.293.950.031.180
Resources\Pictures\	Positive\	1463	group of cats	.jpg	Resources\Pictures\Positive\1463.jpg	1024	768	01. Sep	1	(1.9, 1)												0	20	20	2															2.758.063.557.919.090	None																							lw	3	2019_Sep_18_1021	EmotionSession	03.01.2003	6.006.293.950.031.180
Resources\Pictures\	Positive\	2655	boy and dog	.jpg	Resources\Pictures\Positive\2655.jpg	1024	768	01. Sep	1	(1.9, 1)												0	21	21	16															2.857.968.671.600.060	None																							lw	3	2019_Sep_18_1021	EmotionSession	03.01.2003	6.006.293.950.031.180
Resources\Pictures\	Positive\	2332	girl and dog	.jpg	Resources\Pictures\Positive\2332.jpg	800	600	21.999.999.999.999.900	1	(2.2, 1)												0	22	22	14															2.957.827.534.653.830	None																							lw	3	2019_Sep_18_1021	EmotionSession	03.01.2003	6.006.293.950.031.180
Resources\Pictures\	Positive\	4626	marriage scene	.jpg	Resources\Pictures\Positive\4626.jpg	1024	768	01. Sep	1	(1.9, 1)												0	23	23	17															3.057.815.289.330.940	None																							lw	3	2019_Sep_18_1021	EmotionSession	03.01.2003	6.006.293.950.031.180
Resources\Pictures\	Positive\	2010	smiling man 2	.jpg	Resources\Pictures\Positive\2010.jpg	1024	768	01. Sep	1	(1.9, 1)												0	24	24	29															31.577.036.904.928.400	None																							lw	3	2019_Sep_18_1021	EmotionSession	03.01.2003	6.006.293.950.031.180
Resources\Pictures\	Positive\	1601	man feeding giraffe	.jpg	Resources\Pictures\Positive\1601.jpg	1024	768	01. Sep	1	(1.9, 1)												0	25	25	27															3.257.635.726.817.500	None																							lw	3	2019_Sep_18_1021	EmotionSession	03.01.2003	6.006.293.950.031.180
Resources\Pictures\	Positive\	2550	happy elderly couple	.jpg	Resources\Pictures\Positive\2550.jpg	1024	768	01. Sep	1	(1.9, 1)												0	26	26	15															33.575.726.356.713.400	None																							lw	3	2019_Sep_18_1021	EmotionSession	03.01.2003	6.006.293.950.031.180
Resources\Pictures\	Positive\	2154	father and son	.jpg	Resources\Pictures\Positive\2154.jpg	1024	768	01. Sep	1	(1.9, 1)												0	27	27	11															3.457.447.660.844.650	None																							lw	3	2019_Sep_18_1021	EmotionSession	03.01.2003	6.006.293.950.031.180
Resources\Pictures\	Positive\	2070	baby suprise	.jpg	Resources\Pictures\Positive\2070.jpg	1024	768	01. Sep	1	(1.9, 1)												0	28	28	9															3.557.385.397.431.120	None																							lw	3	2019_Sep_18_1021	EmotionSession	03.01.2003	6.006.293.950.031.180
Resources\Pictures\	Positive\	8330	women and trophy	.jpg	Resources\Pictures\Positive\8330.jpg	1024	768	01. Sep	1	(1.9, 1)												0	29	29	24															3.657.305.086.032.990	None																							lw	3	2019_Sep_18_1021	EmotionSession	03.01.2003	6.006.293.950.031.180
Resources\Pictures\	Positive\	1440	seal	.jpg	Resources\Pictures\Positive\1440.jpg	1024	768	01. Sep	1	(1.9, 1)												0	30	30	0															3.757.229.113.831.150	None																							lw	3	2019_Sep_18_1021	EmotionSession	03.01.2003	6.006.293.950.031.180
Resources\Pictures\	Positive\	2057	sitting baby	.jpg	Resources\Pictures\Positive\2057.jpg	1024	768	01. Sep	1	(1.9, 1)												0	31	31	8															38.571.263.939.188.000	None																							lw	3	2019_Sep_18_1021	EmotionSession	03.01.2003	6.006.293.950.031.180
Resources\Pictures\	Positive\	1440	seal	.jpg	Resources\Pictures\Positive\1440.jpg	1024	768	01. Sep	1	(1.9, 1)																0	0	0	0													2019-09-18_10:28:01	5	64.264	6	90.46																		lw	3	2019_Sep_18_1021	EmotionSession	03.01.2003	6.006.293.950.031.180
Resources\Pictures\	Positive\	1460	tiger cub	.jpg	Resources\Pictures\Positive\1460.jpg	1024	768	01. Sep	1	(1.9, 1)																0	1	1	1														6	12.469	6	7.423																		lw	3	2019_Sep_18_1021	EmotionSession	03.01.2003	6.006.293.950.031.180
Resources\Pictures\	Positive\	1463	group of cats	.jpg	Resources\Pictures\Positive\1463.jpg	1024	768	01. Sep	1	(1.9, 1)																0	2	2	2														7	6.158	6	13.57																		lw	3	2019_Sep_18_1021	EmotionSession	03.01.2003	6.006.293.950.031.180
Resources\Pictures\	Positive\	1710	three dogs	.jpg	Resources\Pictures\Positive\1710.jpg	1024	768	01. Sep	1	(1.9, 1)																0	3	3	3														7	6.509	7	5.527																		lw	3	2019_Sep_18_1021	EmotionSession	03.01.2003	6.006.293.950.031.180
Resources\Pictures\	Positive\	1750	rabit	.jpg	Resources\Pictures\Positive\1750.jpg	1024	768	01. Sep	1	(1.9, 1)																0	4	4	4														6	8.342	7	4.513																		lw	3	2019_Sep_18_1021	EmotionSession	03.01.2003	6.006.293.950.031.180
Resources\Pictures\	Positive\	1811	group of apes	.jpg	Resources\Pictures\Positive\1811.jpg	1024	768	01. Sep	1	(1.9, 1)																0	5	5	5														5	7.577	7	4.681																		lw	3	2019_Sep_18_1021	EmotionSession	03.01.2003	6.006.293.950.031.180
Resources\Pictures\	Positive\	1942	group of turtles	.jpg	Resources\Pictures\Positive\1942.jpg	1024	768	01. Sep	1	(1.9, 1)																0	6	6	6														4	7.392	4	15.368																		lw	3	2019_Sep_18_1021	EmotionSession	03.01.2003	6.006.293.950.031.180
Resources\Pictures\	Positive\	2040	baby on belly	.jpg	Resources\Pictures\Positive\2040.jpg	1024	768	01. Sep	1	(1.9, 1)																0	7	7	7														5	20.065	6	12.337																		lw	3	2019_Sep_18_1021	EmotionSession	03.01.2003	6.006.293.950.031.180
Resources\Pictures\	Positive\	2057	sitting baby	.jpg	Resources\Pictures\Positive\2057.jpg	1024	768	01. Sep	1	(1.9, 1)																0	8	8	8														5	11.641	6	1.933																		lw	3	2019_Sep_18_1021	EmotionSession	03.01.2003	6.006.293.950.031.180
Resources\Pictures\	Positive\	2070	baby suprise	.jpg	Resources\Pictures\Positive\2070.jpg	1024	768	01. Sep	1	(1.9, 1)																0	9	9	9														6	08. Jan	6	2.582																		lw	3	2019_Sep_18_1021	EmotionSession	03.01.2003	6.006.293.950.031.180
Resources\Pictures\	Positive\	2091	children and kitten	.jpg	Resources\Pictures\Positive\2091.jpg	1024	768	01. Sep	1	(1.9, 1)																0	10	10	10														4	8.392	5	Jun 31																		lw	3	2019_Sep_18_1021	EmotionSession	03.01.2003	6.006.293.950.031.180
Resources\Pictures\	Positive\	2154	father and son	.jpg	Resources\Pictures\Positive\2154.jpg	1024	768	01. Sep	1	(1.9, 1)																0	11	11	11														6	7.412	5	6.297																		lw	3	2019_Sep_18_1021	EmotionSession	03.01.2003	6.006.293.950.031.180
Resources\Pictures\	Positive\	2304	smiling girl	.jpg	Resources\Pictures\Positive\2304.jpg	1024	768	17.999.999.999.999.900	1	(1.8, 1)																0	12	12	12														5	9.394	5	6.862																		lw	3	2019_Sep_18_1021	EmotionSession	03.01.2003	6.006.293.950.031.180
Resources\Pictures\	Positive\	2311	mother daughter	.jpg	Resources\Pictures\Positive\2311.jpg	1024	768	17.999.999.999.999.900	1	(1.8, 1)																0	13	13	13														5	8.307	4	7.776																		lw	3	2019_Sep_18_1021	EmotionSession	03.01.2003	6.006.293.950.031.180
Resources\Pictures\	Positive\	2332	girl and dog	.jpg	Resources\Pictures\Positive\2332.jpg	800	600	21.999.999.999.999.900	1	(2.2, 1)																0	14	14	14														6	9.047	4	9.781																		lw	3	2019_Sep_18_1021	EmotionSession	03.01.2003	6.006.293.950.031.180
Resources\Pictures\	Positive\	2550	happy elderly couple	.jpg	Resources\Pictures\Positive\2550.jpg	1024	768	01. Sep	1	(1.9, 1)																0	15	15	15														5	11.004	5	Jul 79																		lw	3	2019_Sep_18_1021	EmotionSession	03.01.2003	6.006.293.950.031.180
Resources\Pictures\	Positive\	2655	boy and dog	.jpg	Resources\Pictures\Positive\2655.jpg	1024	768	01. Sep	1	(1.9, 1)																0	16	16	16														6	9.624	6	Mai 96																		lw	3	2019_Sep_18_1021	EmotionSession	03.01.2003	6.006.293.950.031.180
Resources\Pictures\	Positive\	4626	marriage scene	.jpg	Resources\Pictures\Positive\4626.jpg	1024	768	01. Sep	1	(1.9, 1)																0	17	17	17														6	8.925	6	7.676																		lw	3	2019_Sep_18_1021	EmotionSession	03.01.2003	6.006.293.950.031.180
Resources\Pictures\	Positive\	5760	flowers	.jpg	Resources\Pictures\Positive\5760.jpg	1024	768	01. Sep	1	(1.9, 1)																0	18	18	18														3	6.956	4	Mrz 71																		lw	3	2019_Sep_18_1021	EmotionSession	03.01.2003	6.006.293.950.031.180
Resources\Pictures\	Positive\	5831	father and son beach	.jpg	Resources\Pictures\Positive\5831.jpg	1024	768	01. Sep	1	(1.9, 1)																0	19	19	19														4	6.377	5	5.128																		lw	3	2019_Sep_18_1021	EmotionSession	03.01.2003	6.006.293.950.031.180
Resources\Pictures\	Positive\	5833	sunny beach	.jpg	Resources\Pictures\Positive\5833.jpg	1024	768	01. Sep	1	(1.9, 1)																0	20	20	20														3	9.406	5	11.986																		lw	3	2019_Sep_18_1021	EmotionSession	03.01.2003	6.006.293.950.031.180
Resources\Pictures\	Positive\	1340	women and parrots	.jpg	Resources\Pictures\Positive\1340.jpg	1024	768	01. Sep	1	(1.9, 1)																0	21	21	21														4	5.643	5	Feb 98																		lw	3	2019_Sep_18_1021	EmotionSession	03.01.2003	6.006.293.950.031.180
Resources\Pictures\	Positive\	7325	girl and watermelon	.jpg	Resources\Pictures\Positive\7325.jpg	1024	768	01. Sep	1	(1.9, 1)																0	22	22	22														5	Jun 96	6	3.413																		lw	3	2019_Sep_18_1021	EmotionSession	03.01.2003	6.006.293.950.031.180
Resources\Pictures\	Positive\	7502	disney land	.jpg	Resources\Pictures\Positive\7502.jpg	1024	768	01. Sep	1	(1.9, 1)																0	23	23	23														4	18.384	4	8.525																		lw	3	2019_Sep_18_1021	EmotionSession	03.01.2003	6.006.293.950.031.180
Resources\Pictures\	Positive\	8330	women and trophy	.jpg	Resources\Pictures\Positive\8330.jpg	1024	768	01. Sep	1	(1.9, 1)																0	24	24	24														4	10.342	5	4.364																		lw	3	2019_Sep_18_1021	EmotionSession	03.01.2003	6.006.293.950.031.180
Resources\Pictures\	Positive\	8380	team medals	.jpg	Resources\Pictures\Positive\8380.jpg	1024	768	01. Sep	1	(1.9, 1)																0	25	25	25														5	9.622	5	4.711																		lw	3	2019_Sep_18_1021	EmotionSession	03.01.2003	6.006.293.950.031.180
Resources\Pictures\	Positive\	8497	family on rollercoaster	.jpg	Resources\Pictures\Positive\8497.jpg	1024	768	01. Sep	1	(1.9, 1)																0	26	26	26														5	12.756	6	4.346																		lw	3	2019_Sep_18_1021	EmotionSession	03.01.2003	6.006.293.950.031.180
Resources\Pictures\	Positive\	1601	man feeding giraffe	.jpg	Resources\Pictures\Positive\1601.jpg	1024	768	01. Sep	1	(1.9, 1)																0	27	27	27														5	9.242	4	3.581																		lw	3	2019_Sep_18_1021	EmotionSession	03.01.2003	6.006.293.950.031.180
Resources\Pictures\	Positive\	2005	smiling man	.jpg	Resources\Pictures\Positive\2005.jpg	1024	768	01. Sep	1	(1.9, 1)																0	28	28	28														3	15.256	4	4.564																		lw	3	2019_Sep_18_1021	EmotionSession	03.01.2003	6.006.293.950.031.180
Resources\Pictures\	Positive\	2010	smiling man 2	.jpg	Resources\Pictures\Positive\2010.jpg	1024	768	01. Sep	1	(1.9, 1)																0	29	29	29														4	11.092	5	2.898																		lw	3	2019_Sep_18_1021	EmotionSession	03.01.2003	6.006.293.950.031.180
Resources\Pictures\	Positive\	2058	baby holding hand	.jpg	Resources\Pictures\Positive\2058.jpg	1024	768	01. Sep	1	(1.9, 1)																0	30	30	30														5	7.511	5	3.214																		lw	3	2019_Sep_18_1021	EmotionSession	03.01.2003	6.006.293.950.031.180
Resources\Pictures\	Positive\	2071	baby smiling	.jpg	Resources\Pictures\Positive\2071.jpg	1024	768	01. Sep	1	(1.9, 1)																0	31	31	31														5	6.661	6	2.017																		lw	3	2019_Sep_18_1021	EmotionSession	03.01.2003	6.006.293.950.031.180
																																											4,9375		5,3125		space	32.733.893.347.077.300																lw	3	2019_Sep_18_1021	EmotionSession	03.01.2003	6.006.293.950.031.180
																																																	2019-09-18_10:40:10	2019-09-18_10:45:10	3	18.434												lw	3	2019_Sep_18_1021	EmotionSession	03.01.2003	6.006.293.950.031.180
											Resources\Pictures\	Negative\	2691.0	riot scene 2	.jpg	Resources\Pictures\Negative\2691.jpg	1024	768	01. Sep	1	(1.9, 1)									0	0	0	12																				2019-09-18_10:45:57	14.719.774.971.925.300	None									lw	3	2019_Sep_18_1021	EmotionSession	03.01.2003	6.006.293.950.031.180
											Resources\Pictures\	Negative\	8179.0	bungee jump	.jpg	Resources\Pictures\Negative\8179.jpg	1024	768	01. Sep	1	(1.9, 1)									0	1	1	17																					14.819.631.910.714.000	None									lw	3	2019_Sep_18_1021	EmotionSession	03.01.2003	6.006.293.950.031.180
											Resources\Pictures\	Negative\	5972.0	tornado 2	.jpg	Resources\Pictures\Negative\5972.jpg	1024	768	01. Sep	1	(1.9, 1)									0	2	2	15																					14.919.528.798.268.700	None									lw	3	2019_Sep_18_1021	EmotionSession	03.01.2003	6.006.293.950.031.180
											Resources\Pictures\	Negative\	5971.0	tornado 1	.jpg	Resources\Pictures\Negative\5971.jpg	1024	768	01. Sep	1	(1.9, 1)									0	3	3	14																					15.019.464.858.056.600	None									lw	3	2019_Sep_18_1021	EmotionSession	03.01.2003	6.006.293.950.031.180
											Resources\Pictures\	Negative\	1022.0	snake close up	.jpg	Resources\Pictures\Negative\1022.jpg	1024	768	01. Sep	1	(1.9, 1)									0	4	4	0																					15.119.363.115.210.100	None									lw	3	2019_Sep_18_1021	EmotionSession	03.01.2003	6.006.293.950.031.180
											Resources\Pictures\	Negative\	2100.0	angry man	.jpg	Resources\Pictures\Negative\2100.jpg	1024	768	01. Sep	1	(1.9, 1)									0	5	5	25																					15.219.258.829.432.400	None									lw	3	2019_Sep_18_1021	EmotionSession	03.01.2003	6.006.293.950.031.180
											Resources\Pictures\	Negative\	2683.0	riot scene 1	.jpg	Resources\Pictures\Negative\2683.jpg	1024	768	01. Sep	1	(1.9, 1)									0	6	6	10																					15.319.245.764.910.200	None									lw	3	2019_Sep_18_1021	EmotionSession	03.01.2003	6.006.293.950.031.180
											Resources\Pictures\	Negative\	1302.0	 dog threat 2	.jpg	Resources\Pictures\Negative\1302.jpg	1024	768	01. Sep	1	(1.9, 1)									0	7	7	3																					15.419.156.186.320.000	None									lw	3	2019_Sep_18_1021	EmotionSession	03.01.2003	6.006.293.950.031.180
											Resources\Pictures\	Negative\	2278.0	poor children	.jpg	Resources\Pictures\Negative\2278.jpg	1024	768	01. Sep	1	(1.9, 1)									0	8	8	6																					15.519.083.580.515.300	None									lw	3	2019_Sep_18_1021	EmotionSession	03.01.2003	6.006.293.950.031.180
											Resources\Pictures\	Negative\	7380.0	cockroaches food	.jpg	Resources\Pictures\Negative\7380.jpg	1024	768	01. Sep	1	(1.9, 1)									0	9	9	16																					15.618.969.856.879.000	None									lw	3	2019_Sep_18_1021	EmotionSession	03.01.2003	6.006.293.950.031.180
											Resources\Pictures\	Negative\	9341.0	child in garbage river	.jpg	Resources\Pictures\Negative\9341.jpg	1024	768	01. Sep	1	(1.9, 1)									0	10	10	19																					15.718.937.067.573.600	None									lw	3	2019_Sep_18_1021	EmotionSession	03.01.2003	6.006.293.950.031.180
											Resources\Pictures\	Negative\	1931.0	shark	.jpg	Resources\Pictures\Negative\1931.jpg	1024	768	01. Sep	1	(1.9, 1)									0	11	11	24																					15.818.822.366.871.500	None									lw	3	2019_Sep_18_1021	EmotionSession	03.01.2003	6.006.293.950.031.180
											Resources\Pictures\	Negative\	2206.0	fingerprints	.jpg	Resources\Pictures\Negative\2206.jpg	1024	768	01. Sep	1	(1.9, 1)									0	12	12	4																					15.918.721.648.024.100	None									lw	3	2019_Sep_18_1021	EmotionSession	03.01.2003	6.006.293.950.031.180
											Resources\Pictures\	Negative\	2410.0	math problem	.jpg	Resources\Pictures\Negative\2410.jpg	1024	768	01. Sep	1	(1.9, 1)									0	13	13	9																					1.601.864.550.088.910	None									lw	3	2019_Sep_18_1021	EmotionSession	03.01.2003	6.006.293.950.031.180
											Resources\Pictures\	Negative\	2375.1	famine	.jpg	Resources\Pictures\Negative\2375.1.jpg	1024	768	01. Sep	1	(1.9, 1)									0	14	14	7																					1.611.852.857.725.560	None									lw	3	2019_Sep_18_1021	EmotionSession	03.01.2003	6.006.293.950.031.180
											Resources\Pictures\	Negative\	9560.0	bird in oil	.jpg	Resources\Pictures\Negative\9560.jpg	1024	768	01. Sep	1	(1.9, 1)									0	15	15	29																					16.218.484.122.893.500	None									lw	3	2019_Sep_18_1021	EmotionSession	03.01.2003	6.006.293.950.031.180
											Resources\Pictures\	Negative\	1300.0	dog threat 1	.jpg	Resources\Pictures\Negative\1300.jpg	1024	768	01. Sep	1	(1.9, 1)									0	16	16	2																					16.318.399.049.899.400	None									lw	3	2019_Sep_18_1021	EmotionSession	03.01.2003	6.006.293.950.031.180
											Resources\Pictures\	Negative\	9584.0	dentist	.jpg	Resources\Pictures\Negative\9584.jpg	1024	768	01. Sep	1	(1.9, 1)									0	17	17	20																					1.641.830.167.184.920	None									lw	3	2019_Sep_18_1021	EmotionSession	03.01.2003	6.006.293.950.031.180
											Resources\Pictures\	Negative\	6000.0	prison  	.jpg	Resources\Pictures\Negative\6000.jpg	1024	768	01. Sep	1	(1.9, 1)									0	18	18	28																					16.518.281.076.666.800	None									lw	3	2019_Sep_18_1021	EmotionSession	03.01.2003	6.006.293.950.031.180
											Resources\Pictures\	Negative\	9280.0	pollution	.jpg	Resources\Pictures\Negative\9280.jpg	1024	768	01. Sep	1	(1.9, 1)									0	19	19	18																					16.618.148.626.646.400	None									lw	3	2019_Sep_18_1021	EmotionSession	03.01.2003	6.006.293.950.031.180
											Resources\Pictures\	Negative\	1726.0	roaring tiger	.jpg	Resources\Pictures\Negative\1726.jpg	1024	768	01. Sep	1	(1.9, 1)									0	20	20	23																					16.718.113.989.876.000	None									lw	3	2019_Sep_18_1021	EmotionSession	03.01.2003	6.006.293.950.031.180
											Resources\Pictures\	Negative\	2399.0	headache	.jpg	Resources\Pictures\Negative\2399.jpg	1024	768	01. Sep	1	(1.9, 1)									0	21	21	8																					16.817.966.098.802.200	None									lw	3	2019_Sep_18_1021	EmotionSession	03.01.2003	6.006.293.950.031.180
											Resources\Pictures\	Negative\	2688.0	poacher	.jpg	Resources\Pictures\Negative\2688.jpg	1024	768	01. Sep	1	(1.9, 1)									0	22	22	11																					16.917.931.342.565.200	None									lw	3	2019_Sep_18_1021	EmotionSession	03.01.2003	6.006.293.950.031.180
											Resources\Pictures\	Negative\	2276.0	child crying	.jpg	Resources\Pictures\Negative\2276.jpg	1024	768	01. Sep	1	(1.9, 1)									0	23	23	5																					17.017.791.259.484.700	None									lw	3	2019_Sep_18_1021	EmotionSession	03.01.2003	6.006.293.950.031.180
											Resources\Pictures\	Negative\	9592.0	syringe	.jpg	Resources\Pictures\Negative\9592.jpg	1024	768	01. Sep	1	(1.9, 1)									0	24	24	21																					17.117.725.523.007.500	None									lw	3	2019_Sep_18_1021	EmotionSession	03.01.2003	6.006.293.950.031.180
											Resources\Pictures\	Negative\	1240.0	spider	.jpg	Resources\Pictures\Negative\1240.jpg	1024	768	01. Sep	1	(1.9, 1)									0	25	25	1																					1.721.762.554.655.950	None									lw	3	2019_Sep_18_1021	EmotionSession	03.01.2003	6.006.293.950.031.180
											Resources\Pictures\	Negative\	2692.0	bomb	.jpg	Resources\Pictures\Negative\2692.jpg	1024	768	01. Sep	1	(1.9, 1)									0	26	26	27																					17.317.559.771.682.300	None									lw	3	2019_Sep_18_1021	EmotionSession	03.01.2003	6.006.293.950.031.180
											Resources\Pictures\	Negative\	1201.0	spider on shoulder	.jpg	Resources\Pictures\Negative\1201.jpg	1024	768	01. Sep	1	(1.9, 1)									0	27	27	22																					1.741.750.160.426.520	None									lw	3	2019_Sep_18_1021	EmotionSession	03.01.2003	6.006.293.950.031.180
											Resources\Pictures\	Negative\	2694.0	prison scene	.jpg	Resources\Pictures\Negative\2694.jpg	1024	768	01. Sep	1	(1.9, 1)									0	28	28	13																					1.751.745.591.257.090	None									lw	3	2019_Sep_18_1021	EmotionSession	03.01.2003	6.006.293.950.031.180
											Resources\Pictures\	Negative\	2110.0	 angry man 2	.jpg	Resources\Pictures\Negative\2110.jpg	1024	768	01. Sep	1	(1.9, 1)									0	29	29	26																					17.617.295.946.840.700	None									lw	3	2019_Sep_18_1021	EmotionSession	03.01.2003	6.006.293.950.031.180
											Resources\Pictures\	Negative\	1022.0	snake close up	.jpg	Resources\Pictures\Negative\1022.jpg	1024	768	01. Sep	1	(1.9, 1)													0	0	0	0																			2019-09-18_10:50:57	5	18.254	17.911.288.404.233.800	None	3	9.811		lw	3	2019_Sep_18_1021	EmotionSession	03.01.2003	6.006.293.950.031.180
											Resources\Pictures\	Negative\	1240.0	spider	.jpg	Resources\Pictures\Negative\1240.jpg	1024	768	01. Sep	1	(1.9, 1)													0	1	1	1																				5	6.875	18.089.102.114.899.500	None	3	6.795		lw	3	2019_Sep_18_1021	EmotionSession	03.01.2003	6.006.293.950.031.180
											Resources\Pictures\	Negative\	1300.0	dog threat 1	.jpg	Resources\Pictures\Negative\1300.jpg	1024	768	01. Sep	1	(1.9, 1)													0	2	2	2																				6	5.743	18.225.509.691.298.300	None	3	5.061		lw	3	2019_Sep_18_1021	EmotionSession	03.01.2003	6.006.293.950.031.180
											Resources\Pictures\	Negative\	1302.0	 dog threat 2	.jpg	Resources\Pictures\Negative\1302.jpg	1024	768	01. Sep	1	(1.9, 1)													0	3	3	3																				6	5.361	18.340.772.675.607.300	None	3	1.295		lw	3	2019_Sep_18_1021	EmotionSession	03.01.2003	6.006.293.950.031.180
											Resources\Pictures\	Negative\	2206.0	fingerprints	.jpg	Resources\Pictures\Negative\2206.jpg	1024	768	01. Sep	1	(1.9, 1)													0	4	4	4																				2	7.627	1.844.100.117.247.890	None	3	8.724		lw	3	2019_Sep_18_1021	EmotionSession	03.01.2003	6.006.293.950.031.180
											Resources\Pictures\	Negative\	2276.0	child crying	.jpg	Resources\Pictures\Negative\2276.jpg	1024	768	01. Sep	1	(1.9, 1)													0	5	5	5																				6	5.863	18.597.831.161.317.400	None	2	4.898		lw	3	2019_Sep_18_1021	EmotionSession	03.01.2003	6.006.293.950.031.180
											Resources\Pictures\	Negative\	2278.0	poor children	.jpg	Resources\Pictures\Negative\2278.jpg	1024	768	01. Sep	1	(1.9, 1)													0	6	6	6																				6	6.525	18.723.113.853.342.800	None	3	3.961		lw	3	2019_Sep_18_1021	EmotionSession	03.01.2003	6.006.293.950.031.180
											Resources\Pictures\	Negative\	2375.1	famine	.jpg	Resources\Pictures\Negative\2375.1.jpg	1024	768	01. Sep	1	(1.9, 1)													0	7	7	7																				7	5.914	18.832.815.148.531.000	None	3	4.332		lw	3	2019_Sep_18_1021	EmotionSession	03.01.2003	6.006.293.950.031.180
											Resources\Pictures\	Negative\	2399.0	headache	.jpg	Resources\Pictures\Negative\2399.jpg	1024	768	01. Sep	1	(1.9, 1)													0	8	8	8																				5	Jun 28	18.949.884.096.098.900	None	4	7.462		lw	3	2019_Sep_18_1021	EmotionSession	03.01.2003	6.006.293.950.031.180
											Resources\Pictures\	Negative\	2410.0	math problem	.jpg	Resources\Pictures\Negative\2410.jpg	1024	768	01. Sep	1	(1.9, 1)													0	9	9	9																				6	7.993	19.115.423.568.705.200	None	3	7.062		lw	3	2019_Sep_18_1021	EmotionSession	03.01.2003	6.006.293.950.031.180
											Resources\Pictures\	Negative\	2683.0	riot scene 1	.jpg	Resources\Pictures\Negative\2683.jpg	1024	768	01. Sep	1	(1.9, 1)													0	10	10	10																				7	5.042	19.247.525.928.511.200	None	3	6.974		lw	3	2019_Sep_18_1021	EmotionSession	03.01.2003	6.006.293.950.031.180
											Resources\Pictures\	Negative\	2688.0	poacher	.jpg	Resources\Pictures\Negative\2688.jpg	1024	768	01. Sep	1	(1.9, 1)													0	11	11	11																				5	6.326	19.391.571.514.392.300	None	3	6.309		lw	3	2019_Sep_18_1021	EmotionSession	03.01.2003	6.006.293.950.031.180
											Resources\Pictures\	Negative\	2691.0	riot scene 2	.jpg	Resources\Pictures\Negative\2691.jpg	1024	768	01. Sep	1	(1.9, 1)													0	12	12	12																				7	5.342	19.519.114.253.555.800	None	3	8.175		lw	3	2019_Sep_18_1021	EmotionSession	03.01.2003	6.006.293.950.031.180
											Resources\Pictures\	Negative\	2694.0	prison scene	.jpg	Resources\Pictures\Negative\2694.jpg	1024	768	01. Sep	1	(1.9, 1)													0	13	13	13																				6	6.507	19.676.996.145.496.600	None	3	3.028		lw	3	2019_Sep_18_1021	EmotionSession	03.01.2003	6.006.293.950.031.180
											Resources\Pictures\	Negative\	5971.0	tornado 1	.jpg	Resources\Pictures\Negative\5971.jpg	1024	768	01. Sep	1	(1.9, 1)													0	14	14	14																				7	5.946	19.777.710.653.686.900	None	4	Mai 23		lw	3	2019_Sep_18_1021	EmotionSession	03.01.2003	6.006.293.950.031.180
											Resources\Pictures\	Negative\	5972.0	tornado 2	.jpg	Resources\Pictures\Negative\5972.jpg	1024	768	01. Sep	1	(1.9, 1)													0	15	15	15																				7	12.074	19.961.725.557.994.100	None	3	8.894		lw	3	2019_Sep_18_1021	EmotionSession	03.01.2003	6.006.293.950.031.180
											Resources\Pictures\	Negative\	7380.0	cockroaches food	.jpg	Resources\Pictures\Negative\7380.jpg	1024	768	01. Sep	1	(1.9, 1)													0	16	16	16																				7	5.728	20.118.957.739.556.000	None	2	2.579		lw	3	2019_Sep_18_1021	EmotionSession	03.01.2003	6.006.293.950.031.180
											Resources\Pictures\	Negative\	8179.0	bungee jump	.jpg	Resources\Pictures\Negative\8179.jpg	1024	768	01. Sep	1	(1.9, 1)													0	17	17	17																				7	5.062	20.206.383.026.019.800	None	6	8.441		lw	3	2019_Sep_18_1021	EmotionSession	03.01.2003	6.006.293.950.031.180
											Resources\Pictures\	Negative\	9280.0	pollution	.jpg	Resources\Pictures\Negative\9280.jpg	1024	768	01. Sep	1	(1.9, 1)													0	18	18	18																				4	8.758	20.389.391.509.852.500	None	3	4.213		lw	3	2019_Sep_18_1021	EmotionSession	03.01.2003	6.006.293.950.031.180
											Resources\Pictures\	Negative\	9341.0	child in garbage river	.jpg	Resources\Pictures\Negative\9341.jpg	1024	768	01. Sep	1	(1.9, 1)													0	19	19	19																				6	4.575	20.488.348.596.609.100	None	2	2.543		lw	3	2019_Sep_18_1021	EmotionSession	03.01.2003	6.006.293.950.031.180
											Resources\Pictures\	Negative\	9584.0	dentist	.jpg	Resources\Pictures\Negative\9584.jpg	1024	768	01. Sep	1	(1.9, 1)													0	20	20	20																				7	11.758	2.064.234.753.079.670	None	3	10.441		lw	3	2019_Sep_18_1021	EmotionSession	03.01.2003	6.006.293.950.031.180
											Resources\Pictures\	Negative\	9592.0	syringe	.jpg	Resources\Pictures\Negative\9592.jpg	1024	768	01. Sep	1	(1.9, 1)													0	21	21	21																				5	9.758	20.855.338.696.244.300	None	3	3.064		lw	3	2019_Sep_18_1021	EmotionSession	03.01.2003	6.006.293.950.031.180
											Resources\Pictures\	Negative\	1201.0	spider on shoulder	.jpg	Resources\Pictures\Negative\1201.jpg	1024	768	01. Sep	1	(1.9, 1)													0	22	22	22																				6	8.642	2.098.340.085.043.120	None	4	4.246		lw	3	2019_Sep_18_1021	EmotionSession	03.01.2003	6.006.293.950.031.180
											Resources\Pictures\	Negative\	1726.0	roaring tiger	.jpg	Resources\Pictures\Negative\1726.jpg	1024	768	01. Sep	1	(1.9, 1)													0	23	23	23																				6	25.875	21.295.684.987.148.800	None	3	9.838		lw	3	2019_Sep_18_1021	EmotionSession	03.01.2003	6.006.293.950.031.180
											Resources\Pictures\	Negative\	1931.0	shark	.jpg	Resources\Pictures\Negative\1931.jpg	1024	768	01. Sep	1	(1.9, 1)													0	24	24	24																				7	5.109	21.456.183.738.723.200	None	3	4.262		lw	3	2019_Sep_18_1021	EmotionSession	03.01.2003	6.006.293.950.031.180
											Resources\Pictures\	Negative\	2100.0	angry man	.jpg	Resources\Pictures\Negative\2100.jpg	1024	768	01. Sep	1	(1.9, 1)													0	25	25	25																				4	Jul 28	2.158.255.140.902.270	None	3	3.533		lw	3	2019_Sep_18_1021	EmotionSession	03.01.2003	6.006.293.950.031.180
											Resources\Pictures\	Negative\	2110.0	 angry man 2	.jpg	Resources\Pictures\Negative\2110.jpg	1024	768	01. Sep	1	(1.9, 1)													0	26	26	26																				4	8.847	21.717.270.901.528.800	None	3	0.968		lw	3	2019_Sep_18_1021	EmotionSession	03.01.2003	6.006.293.950.031.180
											Resources\Pictures\	Negative\	2692.0	bomb	.jpg	Resources\Pictures\Negative\2692.jpg	1024	768	01. Sep	1	(1.9, 1)													0	27	27	27																				5	Jun 56	2.180.354.918.097.130	None	4	4.413		lw	3	2019_Sep_18_1021	EmotionSession	03.01.2003	6.006.293.950.031.180
											Resources\Pictures\	Negative\	6000.0	prison  	.jpg	Resources\Pictures\Negative\6000.jpg	1024	768	01. Sep	1	(1.9, 1)													0	28	28	28																				4	16.133	2.202.008.878.925.750	None	2	2.111		lw	3	2019_Sep_18_1021	EmotionSession	03.01.2003	6.006.293.950.031.180
											Resources\Pictures\	Negative\	9560.0	bird in oil	.jpg	Resources\Pictures\Negative\9560.jpg	1024	768	01. Sep	1	(1.9, 1)													0	29	29	29																				5	14.189	22.194.101.406.633.400	None	3	3.777		lw	3	2019_Sep_18_1021	EmotionSession	03.01.2003	6.006.293.950.031.180
																																															space	18.200.488.788.917.000									5,666666667				3,1			lw	3	2019_Sep_18_1021	EmotionSession	03.01.2003	6.006.293.950.031.180
																																																	2019-09-18_10:59:04	2019-09-18_11:04:04	3	10.203												lw	3	2019_Sep_18_1021	EmotionSession	03.01.2003	6.006.293.950.031.180
																																																															2019-09-18_11:04:26						
