Tick,Color,Tone,TimeDur,WordItem,WordColor,AnsLeft,AnsRight,AnsCorr,tick.thisRepN,tick.thisTrialN,tick.thisN,tick.thisIndex,stroop_trials.thisRepN,stroop_trials.thisTrialN,stroop_trials.thisN,stroop_trials.thisIndex,start_session_two,start_stress_one,end_stress_one,rating_evaluation_one.response,rating_evaluation_one.rt,rating_evaluation_two.response,rating_evaluation_two.rt,start_stress_two,key_resp_part_two_meas.keys,key_resp_part_two_meas.rt,key_resp_part_two_meas.started,key_resp_part_two_meas.stopped,end_stress_two,start_cooldown_measurement,end_cooldown_measurement,end_session_two,participant,session,date,expName,psychopyVersion,frameRate,
1,green,440,1.0,,,,,,0,0,0,0,,,,,2019-09-25_09:51:11,2019-09-25_09:53:08,,,,,,,,,,,,,,,mb,002,2019_Sep_25_0951,StressSession,3.1.3,60.07166309120283,
2,green,440,1.0,,,,,,0,1,1,1,,,,,,,,,,,,,,,,,,,,,mb,002,2019_Sep_25_0951,StressSession,3.1.3,60.07166309120283,
3,green,440,1.0,,,,,,0,2,2,2,,,,,,,,,,,,,,,,,,,,,mb,002,2019_Sep_25_0951,StressSession,3.1.3,60.07166309120283,
4,green,440,1.0,,,,,,0,3,3,3,,,,,,,,,,,,,,,,,,,,,mb,002,2019_Sep_25_0951,StressSession,3.1.3,60.07166309120283,
5,green,440,1.0,,,,,,0,4,4,4,,,,,,,,,,,,,,,,,,,,,mb,002,2019_Sep_25_0951,StressSession,3.1.3,60.07166309120283,
6,green,440,1.0,,,,,,0,5,5,5,,,,,,,,,,,,,,,,,,,,,mb,002,2019_Sep_25_0951,StressSession,3.1.3,60.07166309120283,
7,green,440,1.0,,,,,,0,6,6,6,,,,,,,,,,,,,,,,,,,,,mb,002,2019_Sep_25_0951,StressSession,3.1.3,60.07166309120283,
8,green,440,1.0,,,,,,0,7,7,7,,,,,,,,,,,,,,,,,,,,,mb,002,2019_Sep_25_0951,StressSession,3.1.3,60.07166309120283,
9,green,440,1.0,,,,,,0,8,8,8,,,,,,,,,,,,,,,,,,,,,mb,002,2019_Sep_25_0951,StressSession,3.1.3,60.07166309120283,
10,green,440,1.0,,,,,,0,9,9,9,,,,,,,,,,,,,,,,,,,,,mb,002,2019_Sep_25_0951,StressSession,3.1.3,60.07166309120283,
11,green,440,1.0,,,,,,0,10,10,10,,,,,,,,,,,,,,,,,,,,,mb,002,2019_Sep_25_0951,StressSession,3.1.3,60.07166309120283,
12,green,440,1.0,,,,,,0,11,11,11,,,,,,,,,,,,,,,,,,,,,mb,002,2019_Sep_25_0951,StressSession,3.1.3,60.07166309120283,
13,green,440,1.0,,,,,,0,12,12,12,,,,,,,,,,,,,,,,,,,,,mb,002,2019_Sep_25_0951,StressSession,3.1.3,60.07166309120283,
14,green,440,1.0,,,,,,0,13,13,13,,,,,,,,,,,,,,,,,,,,,mb,002,2019_Sep_25_0951,StressSession,3.1.3,60.07166309120283,
15,green,440,1.0,,,,,,0,14,14,14,,,,,,,,,,,,,,,,,,,,,mb,002,2019_Sep_25_0951,StressSession,3.1.3,60.07166309120283,
16,green,440,1.0,,,,,,0,15,15,15,,,,,,,,,,,,,,,,,,,,,mb,002,2019_Sep_25_0951,StressSession,3.1.3,60.07166309120283,
17,green,440,1.0,,,,,,0,16,16,16,,,,,,,,,,,,,,,,,,,,,mb,002,2019_Sep_25_0951,StressSession,3.1.3,60.07166309120283,
18,green,440,1.0,,,,,,0,17,17,17,,,,,,,,,,,,,,,,,,,,,mb,002,2019_Sep_25_0951,StressSession,3.1.3,60.07166309120283,
19,green,440,1.0,,,,,,0,18,18,18,,,,,,,,,,,,,,,,,,,,,mb,002,2019_Sep_25_0951,StressSession,3.1.3,60.07166309120283,
20,green,440,1.0,,,,,,0,19,19,19,,,,,,,,,,,,,,,,,,,,,mb,002,2019_Sep_25_0951,StressSession,3.1.3,60.07166309120283,
21,green,440,1.0,,,,,,0,20,20,20,,,,,,,,,,,,,,,,,,,,,mb,002,2019_Sep_25_0951,StressSession,3.1.3,60.07166309120283,
22,green,440,1.0,,,,,,0,21,21,21,,,,,,,,,,,,,,,,,,,,,mb,002,2019_Sep_25_0951,StressSession,3.1.3,60.07166309120283,
23,green,440,1.0,,,,,,0,22,22,22,,,,,,,,,,,,,,,,,,,,,mb,002,2019_Sep_25_0951,StressSession,3.1.3,60.07166309120283,
24,green,440,1.0,,,,,,0,23,23,23,,,,,,,,,,,,,,,,,,,,,mb,002,2019_Sep_25_0951,StressSession,3.1.3,60.07166309120283,
25,green,440,1.0,,,,,,0,24,24,24,,,,,,,,,,,,,,,,,,,,,mb,002,2019_Sep_25_0951,StressSession,3.1.3,60.07166309120283,
26,green,440,1.0,,,,,,0,25,25,25,,,,,,,,,,,,,,,,,,,,,mb,002,2019_Sep_25_0951,StressSession,3.1.3,60.07166309120283,
27,green,440,1.0,,,,,,0,26,26,26,,,,,,,,,,,,,,,,,,,,,mb,002,2019_Sep_25_0951,StressSession,3.1.3,60.07166309120283,
28,green,440,1.0,,,,,,0,27,27,27,,,,,,,,,,,,,,,,,,,,,mb,002,2019_Sep_25_0951,StressSession,3.1.3,60.07166309120283,
29,green,440,1.0,,,,,,0,28,28,28,,,,,,,,,,,,,,,,,,,,,mb,002,2019_Sep_25_0951,StressSession,3.1.3,60.07166309120283,
30,green,440,1.0,,,,,,0,29,29,29,,,,,,,,,,,,,,,,,,,,,mb,002,2019_Sep_25_0951,StressSession,3.1.3,60.07166309120283,
31,green,440,1.0,,,,,,0,30,30,30,,,,,,,,,,,,,,,,,,,,,mb,002,2019_Sep_25_0951,StressSession,3.1.3,60.07166309120283,
32,green,440,1.0,,,,,,0,31,31,31,,,,,,,,,,,,,,,,,,,,,mb,002,2019_Sep_25_0951,StressSession,3.1.3,60.07166309120283,
33,green,440,1.0,,,,,,0,32,32,32,,,,,,,,,,,,,,,,,,,,,mb,002,2019_Sep_25_0951,StressSession,3.1.3,60.07166309120283,
34,green,440,1.0,,,,,,0,33,33,33,,,,,,,,,,,,,,,,,,,,,mb,002,2019_Sep_25_0951,StressSession,3.1.3,60.07166309120283,
35,green,440,1.0,,,,,,0,34,34,34,,,,,,,,,,,,,,,,,,,,,mb,002,2019_Sep_25_0951,StressSession,3.1.3,60.07166309120283,
36,green,440,1.0,,,,,,0,35,35,35,,,,,,,,,,,,,,,,,,,,,mb,002,2019_Sep_25_0951,StressSession,3.1.3,60.07166309120283,
37,green,440,1.0,,,,,,0,36,36,36,,,,,,,,,,,,,,,,,,,,,mb,002,2019_Sep_25_0951,StressSession,3.1.3,60.07166309120283,
38,green,440,1.0,,,,,,0,37,37,37,,,,,,,,,,,,,,,,,,,,,mb,002,2019_Sep_25_0951,StressSession,3.1.3,60.07166309120283,
39,green,440,1.0,,,,,,0,38,38,38,,,,,,,,,,,,,,,,,,,,,mb,002,2019_Sep_25_0951,StressSession,3.1.3,60.07166309120283,
40,green,440,1.0,,,,,,0,39,39,39,,,,,,,,,,,,,,,,,,,,,mb,002,2019_Sep_25_0951,StressSession,3.1.3,60.07166309120283,
41,green,440,1.0,,,,,,0,40,40,40,,,,,,,,,,,,,,,,,,,,,mb,002,2019_Sep_25_0951,StressSession,3.1.3,60.07166309120283,
42,green,440,1.0,,,,,,0,41,41,41,,,,,,,,,,,,,,,,,,,,,mb,002,2019_Sep_25_0951,StressSession,3.1.3,60.07166309120283,
43,green,440,1.0,,,,,,0,42,42,42,,,,,,,,,,,,,,,,,,,,,mb,002,2019_Sep_25_0951,StressSession,3.1.3,60.07166309120283,
44,green,440,1.0,,,,,,0,43,43,43,,,,,,,,,,,,,,,,,,,,,mb,002,2019_Sep_25_0951,StressSession,3.1.3,60.07166309120283,
45,green,440,1.0,,,,,,0,44,44,44,,,,,,,,,,,,,,,,,,,,,mb,002,2019_Sep_25_0951,StressSession,3.1.3,60.07166309120283,
46,green,440,1.0,,,,,,0,45,45,45,,,,,,,,,,,,,,,,,,,,,mb,002,2019_Sep_25_0951,StressSession,3.1.3,60.07166309120283,
47,green,440,1.0,,,,,,0,46,46,46,,,,,,,,,,,,,,,,,,,,,mb,002,2019_Sep_25_0951,StressSession,3.1.3,60.07166309120283,
48,green,440,1.0,,,,,,0,47,47,47,,,,,,,,,,,,,,,,,,,,,mb,002,2019_Sep_25_0951,StressSession,3.1.3,60.07166309120283,
49,green,440,1.0,,,,,,0,48,48,48,,,,,,,,,,,,,,,,,,,,,mb,002,2019_Sep_25_0951,StressSession,3.1.3,60.07166309120283,
50,green,440,1.0,,,,,,0,49,49,49,,,,,,,,,,,,,,,,,,,,,mb,002,2019_Sep_25_0951,StressSession,3.1.3,60.07166309120283,
51,green,440,1.0,,,,,,0,50,50,50,,,,,,,,,,,,,,,,,,,,,mb,002,2019_Sep_25_0951,StressSession,3.1.3,60.07166309120283,
52,green,440,1.0,,,,,,0,51,51,51,,,,,,,,,,,,,,,,,,,,,mb,002,2019_Sep_25_0951,StressSession,3.1.3,60.07166309120283,
53,green,440,1.0,,,,,,0,52,52,52,,,,,,,,,,,,,,,,,,,,,mb,002,2019_Sep_25_0951,StressSession,3.1.3,60.07166309120283,
54,green,440,1.0,,,,,,0,53,53,53,,,,,,,,,,,,,,,,,,,,,mb,002,2019_Sep_25_0951,StressSession,3.1.3,60.07166309120283,
55,green,440,1.0,,,,,,0,54,54,54,,,,,,,,,,,,,,,,,,,,,mb,002,2019_Sep_25_0951,StressSession,3.1.3,60.07166309120283,
56,green,440,1.0,,,,,,0,55,55,55,,,,,,,,,,,,,,,,,,,,,mb,002,2019_Sep_25_0951,StressSession,3.1.3,60.07166309120283,
57,green,440,1.0,,,,,,0,56,56,56,,,,,,,,,,,,,,,,,,,,,mb,002,2019_Sep_25_0951,StressSession,3.1.3,60.07166309120283,
58,green,440,1.0,,,,,,0,57,57,57,,,,,,,,,,,,,,,,,,,,,mb,002,2019_Sep_25_0951,StressSession,3.1.3,60.07166309120283,
59,green,440,1.0,,,,,,0,58,58,58,,,,,,,,,,,,,,,,,,,,,mb,002,2019_Sep_25_0951,StressSession,3.1.3,60.07166309120283,
60,green,440,1.0,,,,,,0,59,59,59,,,,,,,,,,,,,,,,,,,,,mb,002,2019_Sep_25_0951,StressSession,3.1.3,60.07166309120283,
61,green,440,1.0,,,,,,0,60,60,60,,,,,,,,,,,,,,,,,,,,,mb,002,2019_Sep_25_0951,StressSession,3.1.3,60.07166309120283,
62,green,440,1.0,,,,,,0,61,61,61,,,,,,,,,,,,,,,,,,,,,mb,002,2019_Sep_25_0951,StressSession,3.1.3,60.07166309120283,
63,green,440,1.0,,,,,,0,62,62,62,,,,,,,,,,,,,,,,,,,,,mb,002,2019_Sep_25_0951,StressSession,3.1.3,60.07166309120283,
64,green,440,1.0,,,,,,0,63,63,63,,,,,,,,,,,,,,,,,,,,,mb,002,2019_Sep_25_0951,StressSession,3.1.3,60.07166309120283,
65,green,440,1.0,,,,,,0,64,64,64,,,,,,,,,,,,,,,,,,,,,mb,002,2019_Sep_25_0951,StressSession,3.1.3,60.07166309120283,
66,green,440,1.0,,,,,,0,65,65,65,,,,,,,,,,,,,,,,,,,,,mb,002,2019_Sep_25_0951,StressSession,3.1.3,60.07166309120283,
67,green,440,1.0,,,,,,0,66,66,66,,,,,,,,,,,,,,,,,,,,,mb,002,2019_Sep_25_0951,StressSession,3.1.3,60.07166309120283,
68,green,440,1.0,,,,,,0,67,67,67,,,,,,,,,,,,,,,,,,,,,mb,002,2019_Sep_25_0951,StressSession,3.1.3,60.07166309120283,
69,green,440,1.0,,,,,,0,68,68,68,,,,,,,,,,,,,,,,,,,,,mb,002,2019_Sep_25_0951,StressSession,3.1.3,60.07166309120283,
70,green,440,1.0,,,,,,0,69,69,69,,,,,,,,,,,,,,,,,,,,,mb,002,2019_Sep_25_0951,StressSession,3.1.3,60.07166309120283,
71,green,440,1.0,,,,,,0,70,70,70,,,,,,,,,,,,,,,,,,,,,mb,002,2019_Sep_25_0951,StressSession,3.1.3,60.07166309120283,
72,green,440,1.0,,,,,,0,71,71,71,,,,,,,,,,,,,,,,,,,,,mb,002,2019_Sep_25_0951,StressSession,3.1.3,60.07166309120283,
73,green,440,1.0,,,,,,0,72,72,72,,,,,,,,,,,,,,,,,,,,,mb,002,2019_Sep_25_0951,StressSession,3.1.3,60.07166309120283,
74,green,440,1.0,,,,,,0,73,73,73,,,,,,,,,,,,,,,,,,,,,mb,002,2019_Sep_25_0951,StressSession,3.1.3,60.07166309120283,
75,green,440,1.0,,,,,,0,74,74,74,,,,,,,,,,,,,,,,,,,,,mb,002,2019_Sep_25_0951,StressSession,3.1.3,60.07166309120283,
76,green,440,1.0,,,,,,0,75,75,75,,,,,,,,,,,,,,,,,,,,,mb,002,2019_Sep_25_0951,StressSession,3.1.3,60.07166309120283,
77,green,440,1.0,,,,,,0,76,76,76,,,,,,,,,,,,,,,,,,,,,mb,002,2019_Sep_25_0951,StressSession,3.1.3,60.07166309120283,
78,green,440,1.0,,,,,,0,77,77,77,,,,,,,,,,,,,,,,,,,,,mb,002,2019_Sep_25_0951,StressSession,3.1.3,60.07166309120283,
79,green,440,1.0,,,,,,0,78,78,78,,,,,,,,,,,,,,,,,,,,,mb,002,2019_Sep_25_0951,StressSession,3.1.3,60.07166309120283,
80,green,440,1.0,,,,,,0,79,79,79,,,,,,,,,,,,,,,,,,,,,mb,002,2019_Sep_25_0951,StressSession,3.1.3,60.07166309120283,
81,green,440,1.0,,,,,,0,80,80,80,,,,,,,,,,,,,,,,,,,,,mb,002,2019_Sep_25_0951,StressSession,3.1.3,60.07166309120283,
82,green,440,1.0,,,,,,0,81,81,81,,,,,,,,,,,,,,,,,,,,,mb,002,2019_Sep_25_0951,StressSession,3.1.3,60.07166309120283,
83,green,440,1.0,,,,,,0,82,82,82,,,,,,,,,,,,,,,,,,,,,mb,002,2019_Sep_25_0951,StressSession,3.1.3,60.07166309120283,
84,green,440,1.0,,,,,,0,83,83,83,,,,,,,,,,,,,,,,,,,,,mb,002,2019_Sep_25_0951,StressSession,3.1.3,60.07166309120283,
85,green,440,1.0,,,,,,0,84,84,84,,,,,,,,,,,,,,,,,,,,,mb,002,2019_Sep_25_0951,StressSession,3.1.3,60.07166309120283,
86,green,440,1.0,,,,,,0,85,85,85,,,,,,,,,,,,,,,,,,,,,mb,002,2019_Sep_25_0951,StressSession,3.1.3,60.07166309120283,
87,green,440,1.0,,,,,,0,86,86,86,,,,,,,,,,,,,,,,,,,,,mb,002,2019_Sep_25_0951,StressSession,3.1.3,60.07166309120283,
88,green,440,1.0,,,,,,0,87,87,87,,,,,,,,,,,,,,,,,,,,,mb,002,2019_Sep_25_0951,StressSession,3.1.3,60.07166309120283,
89,green,440,1.0,,,,,,0,88,88,88,,,,,,,,,,,,,,,,,,,,,mb,002,2019_Sep_25_0951,StressSession,3.1.3,60.07166309120283,
90,green,440,1.0,,,,,,0,89,89,89,,,,,,,,,,,,,,,,,,,,,mb,002,2019_Sep_25_0951,StressSession,3.1.3,60.07166309120283,
91,green,440,1.0,,,,,,0,90,90,90,,,,,,,,,,,,,,,,,,,,,mb,002,2019_Sep_25_0951,StressSession,3.1.3,60.07166309120283,
92,green,440,1.0,,,,,,0,91,91,91,,,,,,,,,,,,,,,,,,,,,mb,002,2019_Sep_25_0951,StressSession,3.1.3,60.07166309120283,
93,green,440,1.0,,,,,,0,92,92,92,,,,,,,,,,,,,,,,,,,,,mb,002,2019_Sep_25_0951,StressSession,3.1.3,60.07166309120283,
94,green,440,1.0,,,,,,0,93,93,93,,,,,,,,,,,,,,,,,,,,,mb,002,2019_Sep_25_0951,StressSession,3.1.3,60.07166309120283,
95,green,440,1.0,,,,,,0,94,94,94,,,,,,,,,,,,,,,,,,,,,mb,002,2019_Sep_25_0951,StressSession,3.1.3,60.07166309120283,
96,green,440,1.0,,,,,,0,95,95,95,,,,,,,,,,,,,,,,,,,,,mb,002,2019_Sep_25_0951,StressSession,3.1.3,60.07166309120283,
97,green,440,1.0,,,,,,0,96,96,96,,,,,,,,,,,,,,,,,,,,,mb,002,2019_Sep_25_0951,StressSession,3.1.3,60.07166309120283,
98,green,440,1.0,,,,,,0,97,97,97,,,,,,,,,,,,,,,,,,,,,mb,002,2019_Sep_25_0951,StressSession,3.1.3,60.07166309120283,
99,green,440,1.0,,,,,,0,98,98,98,,,,,,,,,,,,,,,,,,,,,mb,002,2019_Sep_25_0951,StressSession,3.1.3,60.07166309120283,
100,green,440,1.0,,,,,,0,99,99,99,,,,,,,,,,,,,,,,,,,,,mb,002,2019_Sep_25_0951,StressSession,3.1.3,60.07166309120283,
101,green,440,1.0,,,,,,0,100,100,100,,,,,,,,,,,,,,,,,,,,,mb,002,2019_Sep_25_0951,StressSession,3.1.3,60.07166309120283,
102,green,440,1.0,,,,,,0,101,101,101,,,,,,,,,,,,,,,,,,,,,mb,002,2019_Sep_25_0951,StressSession,3.1.3,60.07166309120283,
103,green,440,1.0,,,,,,0,102,102,102,,,,,,,,,,,,,,,,,,,,,mb,002,2019_Sep_25_0951,StressSession,3.1.3,60.07166309120283,
104,green,440,1.0,,,,,,0,103,103,103,,,,,,,,,,,,,,,,,,,,,mb,002,2019_Sep_25_0951,StressSession,3.1.3,60.07166309120283,
105,green,440,1.0,,,,,,0,104,104,104,,,,,,,,,,,,,,,,,,,,,mb,002,2019_Sep_25_0951,StressSession,3.1.3,60.07166309120283,
106,green,440,1.0,,,,,,0,105,105,105,,,,,,,,,,,,,,,,,,,,,mb,002,2019_Sep_25_0951,StressSession,3.1.3,60.07166309120283,
107,green,440,1.0,,,,,,0,106,106,106,,,,,,,,,,,,,,,,,,,,,mb,002,2019_Sep_25_0951,StressSession,3.1.3,60.07166309120283,
108,green,440,1.0,,,,,,0,107,107,107,,,,,,,,,,,,,,,,,,,,,mb,002,2019_Sep_25_0951,StressSession,3.1.3,60.07166309120283,
109,green,440,1.0,,,,,,0,108,108,108,,,,,,,,,,,,,,,,,,,,,mb,002,2019_Sep_25_0951,StressSession,3.1.3,60.07166309120283,
110,green,440,1.0,,,,,,0,109,109,109,,,,,,,,,,,,,,,,,,,,,mb,002,2019_Sep_25_0951,StressSession,3.1.3,60.07166309120283,
111,green,440,1.0,,,,,,0,110,110,110,,,,,,,,,,,,,,,,,,,,,mb,002,2019_Sep_25_0951,StressSession,3.1.3,60.07166309120283,
112,green,440,1.0,,,,,,0,111,111,111,,,,,,,,,,,,,,,,,,,,,mb,002,2019_Sep_25_0951,StressSession,3.1.3,60.07166309120283,
113,green,440,1.0,,,,,,0,112,112,112,,,,,,,,,,,,,,,,,,,,,mb,002,2019_Sep_25_0951,StressSession,3.1.3,60.07166309120283,
114,green,440,1.0,,,,,,0,113,113,113,,,,,,,,,,,,,,,,,,,,,mb,002,2019_Sep_25_0951,StressSession,3.1.3,60.07166309120283,
115,green,440,1.0,,,,,,0,114,114,114,,,,,,,,,,,,,,,,,,,,,mb,002,2019_Sep_25_0951,StressSession,3.1.3,60.07166309120283,
116,green,440,1.0,,,,,,0,115,115,115,,,,,,,,,,,,,,,,,,,,,mb,002,2019_Sep_25_0951,StressSession,3.1.3,60.07166309120283,
117,green,440,1.0,,,,,,0,116,116,116,,,,,,,,,,,,,,,,,,,,,mb,002,2019_Sep_25_0951,StressSession,3.1.3,60.07166309120283,
118,green,440,1.0,,,,,,0,117,117,117,,,,,,,,,,,,,,,,,,,,,mb,002,2019_Sep_25_0951,StressSession,3.1.3,60.07166309120283,
119,green,440,1.0,,,,,,0,118,118,118,,,,,,,,,,,,,,,,,,,,,mb,002,2019_Sep_25_0951,StressSession,3.1.3,60.07166309120283,
120,green,440,1.0,,,,,,0,119,119,119,,,,,,,,,,,,,,,,,,,,,mb,002,2019_Sep_25_0951,StressSession,3.1.3,60.07166309120283,
121,green,440,1.0,,,,,,0,120,120,120,,,,,,,,,,,,,,,,,,,,,mb,002,2019_Sep_25_0951,StressSession,3.1.3,60.07166309120283,
122,green,440,1.0,,,,,,0,121,121,121,,,,,,,,,,,,,,,,,,,,,mb,002,2019_Sep_25_0951,StressSession,3.1.3,60.07166309120283,
123,green,440,1.0,,,,,,0,122,122,122,,,,,,,,,,,,,,,,,,,,,mb,002,2019_Sep_25_0951,StressSession,3.1.3,60.07166309120283,
124,green,440,1.0,,,,,,0,123,123,123,,,,,,,,,,,,,,,,,,,,,mb,002,2019_Sep_25_0951,StressSession,3.1.3,60.07166309120283,
125,green,440,1.0,,,,,,0,124,124,124,,,,,,,,,,,,,,,,,,,,,mb,002,2019_Sep_25_0951,StressSession,3.1.3,60.07166309120283,
126,green,440,1.0,,,,,,0,125,125,125,,,,,,,,,,,,,,,,,,,,,mb,002,2019_Sep_25_0951,StressSession,3.1.3,60.07166309120283,
127,green,440,1.0,,,,,,0,126,126,126,,,,,,,,,,,,,,,,,,,,,mb,002,2019_Sep_25_0951,StressSession,3.1.3,60.07166309120283,
128,green,440,1.0,,,,,,0,127,127,127,,,,,,,,,,,,,,,,,,,,,mb,002,2019_Sep_25_0951,StressSession,3.1.3,60.07166309120283,
129,green,440,1.0,,,,,,0,128,128,128,,,,,,,,,,,,,,,,,,,,,mb,002,2019_Sep_25_0951,StressSession,3.1.3,60.07166309120283,
130,green,440,1.0,,,,,,0,129,129,129,,,,,,,,,,,,,,,,,,,,,mb,002,2019_Sep_25_0951,StressSession,3.1.3,60.07166309120283,
131,green,440,1.0,,,,,,0,130,130,130,,,,,,,,,,,,,,,,,,,,,mb,002,2019_Sep_25_0951,StressSession,3.1.3,60.07166309120283,
132,green,440,1.0,,,,,,0,131,131,131,,,,,,,,,,,,,,,,,,,,,mb,002,2019_Sep_25_0951,StressSession,3.1.3,60.07166309120283,
133,green,440,1.0,,,,,,0,132,132,132,,,,,,,,,,,,,,,,,,,,,mb,002,2019_Sep_25_0951,StressSession,3.1.3,60.07166309120283,
134,green,440,1.0,,,,,,0,133,133,133,,,,,,,,,,,,,,,,,,,,,mb,002,2019_Sep_25_0951,StressSession,3.1.3,60.07166309120283,
135,green,440,1.0,,,,,,0,134,134,134,,,,,,,,,,,,,,,,,,,,,mb,002,2019_Sep_25_0951,StressSession,3.1.3,60.07166309120283,
136,green,440,1.0,,,,,,0,135,135,135,,,,,,,,,,,,,,,,,,,,,mb,002,2019_Sep_25_0951,StressSession,3.1.3,60.07166309120283,
137,green,440,1.0,,,,,,0,136,136,136,,,,,,,,,,,,,,,,,,,,,mb,002,2019_Sep_25_0951,StressSession,3.1.3,60.07166309120283,
138,green,440,1.0,,,,,,0,137,137,137,,,,,,,,,,,,,,,,,,,,,mb,002,2019_Sep_25_0951,StressSession,3.1.3,60.07166309120283,
139,green,440,1.0,,,,,,0,138,138,138,,,,,,,,,,,,,,,,,,,,,mb,002,2019_Sep_25_0951,StressSession,3.1.3,60.07166309120283,
140,green,440,1.0,,,,,,0,139,139,139,,,,,,,,,,,,,,,,,,,,,mb,002,2019_Sep_25_0951,StressSession,3.1.3,60.07166309120283,
141,green,440,1.0,,,,,,0,140,140,140,,,,,,,,,,,,,,,,,,,,,mb,002,2019_Sep_25_0951,StressSession,3.1.3,60.07166309120283,
142,green,440,1.0,,,,,,0,141,141,141,,,,,,,,,,,,,,,,,,,,,mb,002,2019_Sep_25_0951,StressSession,3.1.3,60.07166309120283,
143,green,440,1.0,,,,,,0,142,142,142,,,,,,,,,,,,,,,,,,,,,mb,002,2019_Sep_25_0951,StressSession,3.1.3,60.07166309120283,
144,green,440,1.0,,,,,,0,143,143,143,,,,,,,,,,,,,,,,,,,,,mb,002,2019_Sep_25_0951,StressSession,3.1.3,60.07166309120283,
145,green,440,1.0,,,,,,0,144,144,144,,,,,,,,,,,,,,,,,,,,,mb,002,2019_Sep_25_0951,StressSession,3.1.3,60.07166309120283,
146,green,440,1.0,,,,,,0,145,145,145,,,,,,,,,,,,,,,,,,,,,mb,002,2019_Sep_25_0951,StressSession,3.1.3,60.07166309120283,
147,green,440,1.0,,,,,,0,146,146,146,,,,,,,,,,,,,,,,,,,,,mb,002,2019_Sep_25_0951,StressSession,3.1.3,60.07166309120283,
148,green,440,1.0,,,,,,0,147,147,147,,,,,,,,,,,,,,,,,,,,,mb,002,2019_Sep_25_0951,StressSession,3.1.3,60.07166309120283,
149,green,440,1.0,,,,,,0,148,148,148,,,,,,,,,,,,,,,,,,,,,mb,002,2019_Sep_25_0951,StressSession,3.1.3,60.07166309120283,
150,green,440,1.0,,,,,,0,149,149,149,,,,,,,,,,,,,,,,,,,,,mb,002,2019_Sep_25_0951,StressSession,3.1.3,60.07166309120283,
151,green,440,1.0,,,,,,0,150,150,150,,,,,,,,,,,,,,,,,,,,,mb,002,2019_Sep_25_0951,StressSession,3.1.3,60.07166309120283,
152,green,440,1.0,,,,,,0,151,151,151,,,,,,,,,,,,,,,,,,,,,mb,002,2019_Sep_25_0951,StressSession,3.1.3,60.07166309120283,
153,green,440,1.0,,,,,,0,152,152,152,,,,,,,,,,,,,,,,,,,,,mb,002,2019_Sep_25_0951,StressSession,3.1.3,60.07166309120283,
154,green,440,1.0,,,,,,0,153,153,153,,,,,,,,,,,,,,,,,,,,,mb,002,2019_Sep_25_0951,StressSession,3.1.3,60.07166309120283,
155,green,440,1.0,,,,,,0,154,154,154,,,,,,,,,,,,,,,,,,,,,mb,002,2019_Sep_25_0951,StressSession,3.1.3,60.07166309120283,
156,green,440,1.0,,,,,,0,155,155,155,,,,,,,,,,,,,,,,,,,,,mb,002,2019_Sep_25_0951,StressSession,3.1.3,60.07166309120283,
157,green,440,1.0,,,,,,0,156,156,156,,,,,,,,,,,,,,,,,,,,,mb,002,2019_Sep_25_0951,StressSession,3.1.3,60.07166309120283,
158,green,440,1.0,,,,,,0,157,157,157,,,,,,,,,,,,,,,,,,,,,mb,002,2019_Sep_25_0951,StressSession,3.1.3,60.07166309120283,
159,green,440,1.0,,,,,,0,158,158,158,,,,,,,,,,,,,,,,,,,,,mb,002,2019_Sep_25_0951,StressSession,3.1.3,60.07166309120283,
160,green,440,1.0,,,,,,0,159,159,159,,,,,,,,,,,,,,,,,,,,,mb,002,2019_Sep_25_0951,StressSession,3.1.3,60.07166309120283,
161,green,440,1.0,,,,,,0,160,160,160,,,,,,,,,,,,,,,,,,,,,mb,002,2019_Sep_25_0951,StressSession,3.1.3,60.07166309120283,
162,green,440,1.0,,,,,,0,161,161,161,,,,,,,,,,,,,,,,,,,,,mb,002,2019_Sep_25_0951,StressSession,3.1.3,60.07166309120283,
163,green,440,1.0,,,,,,0,162,162,162,,,,,,,,,,,,,,,,,,,,,mb,002,2019_Sep_25_0951,StressSession,3.1.3,60.07166309120283,
164,green,440,1.0,,,,,,0,163,163,163,,,,,,,,,,,,,,,,,,,,,mb,002,2019_Sep_25_0951,StressSession,3.1.3,60.07166309120283,
165,green,440,1.0,,,,,,0,164,164,164,,,,,,,,,,,,,,,,,,,,,mb,002,2019_Sep_25_0951,StressSession,3.1.3,60.07166309120283,
166,green,440,1.0,,,,,,0,165,165,165,,,,,,,,,,,,,,,,,,,,,mb,002,2019_Sep_25_0951,StressSession,3.1.3,60.07166309120283,
167,green,440,1.0,,,,,,0,166,166,166,,,,,,,,,,,,,,,,,,,,,mb,002,2019_Sep_25_0951,StressSession,3.1.3,60.07166309120283,
168,green,440,1.0,,,,,,0,167,167,167,,,,,,,,,,,,,,,,,,,,,mb,002,2019_Sep_25_0951,StressSession,3.1.3,60.07166309120283,
169,green,440,1.0,,,,,,0,168,168,168,,,,,,,,,,,,,,,,,,,,,mb,002,2019_Sep_25_0951,StressSession,3.1.3,60.07166309120283,
170,green,440,1.0,,,,,,0,169,169,169,,,,,,,,,,,,,,,,,,,,,mb,002,2019_Sep_25_0951,StressSession,3.1.3,60.07166309120283,
171,green,440,1.0,,,,,,0,170,170,170,,,,,,,,,,,,,,,,,,,,,mb,002,2019_Sep_25_0951,StressSession,3.1.3,60.07166309120283,
172,green,440,1.0,,,,,,0,171,171,171,,,,,,,,,,,,,,,,,,,,,mb,002,2019_Sep_25_0951,StressSession,3.1.3,60.07166309120283,
173,green,440,1.0,,,,,,0,172,172,172,,,,,,,,,,,,,,,,,,,,,mb,002,2019_Sep_25_0951,StressSession,3.1.3,60.07166309120283,
174,green,440,1.0,,,,,,0,173,173,173,,,,,,,,,,,,,,,,,,,,,mb,002,2019_Sep_25_0951,StressSession,3.1.3,60.07166309120283,
175,green,440,1.0,,,,,,0,174,174,174,,,,,,,,,,,,,,,,,,,,,mb,002,2019_Sep_25_0951,StressSession,3.1.3,60.07166309120283,
176,green,440,1.0,,,,,,0,175,175,175,,,,,,,,,,,,,,,,,,,,,mb,002,2019_Sep_25_0951,StressSession,3.1.3,60.07166309120283,
177,green,440,1.0,,,,,,0,176,176,176,,,,,,,,,,,,,,,,,,,,,mb,002,2019_Sep_25_0951,StressSession,3.1.3,60.07166309120283,
178,green,440,1.0,,,,,,0,177,177,177,,,,,,,,,,,,,,,,,,,,,mb,002,2019_Sep_25_0951,StressSession,3.1.3,60.07166309120283,
179,green,440,1.0,,,,,,0,178,178,178,,,,,,,,,,,,,,,,,,,,,mb,002,2019_Sep_25_0951,StressSession,3.1.3,60.07166309120283,
180,yellow,880,0.5,,,,,,0,179,179,179,,,,,,,,,,,,,,,,,,,,,mb,002,2019_Sep_25_0951,StressSession,3.1.3,60.07166309120283,
181,yellow,880,0.5,,,,,,0,180,180,180,,,,,,,,,,,,,,,,,,,,,mb,002,2019_Sep_25_0951,StressSession,3.1.3,60.07166309120283,
182,yellow,880,0.5,,,,,,0,181,181,181,,,,,,,,,,,,,,,,,,,,,mb,002,2019_Sep_25_0951,StressSession,3.1.3,60.07166309120283,
183,yellow,880,0.5,,,,,,0,182,182,182,,,,,,,,,,,,,,,,,,,,,mb,002,2019_Sep_25_0951,StressSession,3.1.3,60.07166309120283,
184,yellow,880,0.5,,,,,,0,183,183,183,,,,,,,,,,,,,,,,,,,,,mb,002,2019_Sep_25_0951,StressSession,3.1.3,60.07166309120283,
185,yellow,880,0.5,,,,,,0,184,184,184,,,,,,,,,,,,,,,,,,,,,mb,002,2019_Sep_25_0951,StressSession,3.1.3,60.07166309120283,
186,yellow,880,0.5,,,,,,0,185,185,185,,,,,,,,,,,,,,,,,,,,,mb,002,2019_Sep_25_0951,StressSession,3.1.3,60.07166309120283,
187,yellow,880,0.5,,,,,,0,186,186,186,,,,,,,,,,,,,,,,,,,,,mb,002,2019_Sep_25_0951,StressSession,3.1.3,60.07166309120283,
188,yellow,880,0.5,,,,,,0,187,187,187,,,,,,,,,,,,,,,,,,,,,mb,002,2019_Sep_25_0951,StressSession,3.1.3,60.07166309120283,
189,yellow,880,0.5,,,,,,0,188,188,188,,,,,,,,,,,,,,,,,,,,,mb,002,2019_Sep_25_0951,StressSession,3.1.3,60.07166309120283,
190,yellow,880,0.5,,,,,,0,189,189,189,,,,,,,,,,,,,,,,,,,,,mb,002,2019_Sep_25_0951,StressSession,3.1.3,60.07166309120283,
191,yellow,880,0.5,,,,,,0,190,190,190,,,,,,,,,,,,,,,,,,,,,mb,002,2019_Sep_25_0951,StressSession,3.1.3,60.07166309120283,
192,yellow,880,0.5,,,,,,0,191,191,191,,,,,,,,,,,,,,,,,,,,,mb,002,2019_Sep_25_0951,StressSession,3.1.3,60.07166309120283,
193,yellow,880,0.5,,,,,,0,192,192,192,,,,,,,,,,,,,,,,,,,,,mb,002,2019_Sep_25_0951,StressSession,3.1.3,60.07166309120283,
194,yellow,880,0.5,,,,,,0,193,193,193,,,,,,,,,,,,,,,,,,,,,mb,002,2019_Sep_25_0951,StressSession,3.1.3,60.07166309120283,
195,yellow,880,0.5,,,,,,0,194,194,194,,,,,,,,,,,,,,,,,,,,,mb,002,2019_Sep_25_0951,StressSession,3.1.3,60.07166309120283,
196,yellow,880,0.5,,,,,,0,195,195,195,,,,,,,,,,,,,,,,,,,,,mb,002,2019_Sep_25_0951,StressSession,3.1.3,60.07166309120283,
197,yellow,880,0.5,,,,,,0,196,196,196,,,,,,,,,,,,,,,,,,,,,mb,002,2019_Sep_25_0951,StressSession,3.1.3,60.07166309120283,
198,yellow,880,0.5,,,,,,0,197,197,197,,,,,,,,,,,,,,,,,,,,,mb,002,2019_Sep_25_0951,StressSession,3.1.3,60.07166309120283,
199,yellow,880,0.5,,,,,,0,198,198,198,,,,,,,,,,,,,,,,,,,,,mb,002,2019_Sep_25_0951,StressSession,3.1.3,60.07166309120283,
200,yellow,880,0.5,,,,,,0,199,199,199,,,,,,,,,,,,,,,,,,,,,mb,002,2019_Sep_25_0951,StressSession,3.1.3,60.07166309120283,
201,yellow,880,0.5,,,,,,0,200,200,200,,,,,,,,,,,,,,,,,,,,,mb,002,2019_Sep_25_0951,StressSession,3.1.3,60.07166309120283,
202,yellow,880,0.5,,,,,,0,201,201,201,,,,,,,,,,,,,,,,,,,,,mb,002,2019_Sep_25_0951,StressSession,3.1.3,60.07166309120283,
203,yellow,880,0.5,,,,,,0,202,202,202,,,,,,,,,,,,,,,,,,,,,mb,002,2019_Sep_25_0951,StressSession,3.1.3,60.07166309120283,
204,yellow,880,0.5,,,,,,0,203,203,203,,,,,,,,,,,,,,,,,,,,,mb,002,2019_Sep_25_0951,StressSession,3.1.3,60.07166309120283,
205,yellow,880,0.5,,,,,,0,204,204,204,,,,,,,,,,,,,,,,,,,,,mb,002,2019_Sep_25_0951,StressSession,3.1.3,60.07166309120283,
206,yellow,880,0.5,,,,,,0,205,205,205,,,,,,,,,,,,,,,,,,,,,mb,002,2019_Sep_25_0951,StressSession,3.1.3,60.07166309120283,
207,yellow,880,0.5,,,,,,0,206,206,206,,,,,,,,,,,,,,,,,,,,,mb,002,2019_Sep_25_0951,StressSession,3.1.3,60.07166309120283,
208,yellow,880,0.5,,,,,,0,207,207,207,,,,,,,,,,,,,,,,,,,,,mb,002,2019_Sep_25_0951,StressSession,3.1.3,60.07166309120283,
209,yellow,880,0.5,,,,,,0,208,208,208,,,,,,,,,,,,,,,,,,,,,mb,002,2019_Sep_25_0951,StressSession,3.1.3,60.07166309120283,
210,yellow,880,0.5,,,,,,0,209,209,209,,,,,,,,,,,,,,,,,,,,,mb,002,2019_Sep_25_0951,StressSession,3.1.3,60.07166309120283,
211,yellow,880,0.5,,,,,,0,210,210,210,,,,,,,,,,,,,,,,,,,,,mb,002,2019_Sep_25_0951,StressSession,3.1.3,60.07166309120283,
212,yellow,880,0.5,,,,,,0,211,211,211,,,,,,,,,,,,,,,,,,,,,mb,002,2019_Sep_25_0951,StressSession,3.1.3,60.07166309120283,
213,yellow,880,0.5,,,,,,0,212,212,212,,,,,,,,,,,,,,,,,,,,,mb,002,2019_Sep_25_0951,StressSession,3.1.3,60.07166309120283,
214,yellow,880,0.5,,,,,,0,213,213,213,,,,,,,,,,,,,,,,,,,,,mb,002,2019_Sep_25_0951,StressSession,3.1.3,60.07166309120283,
215,yellow,880,0.5,,,,,,0,214,214,214,,,,,,,,,,,,,,,,,,,,,mb,002,2019_Sep_25_0951,StressSession,3.1.3,60.07166309120283,
216,yellow,880,0.5,,,,,,0,215,215,215,,,,,,,,,,,,,,,,,,,,,mb,002,2019_Sep_25_0951,StressSession,3.1.3,60.07166309120283,
217,yellow,880,0.5,,,,,,0,216,216,216,,,,,,,,,,,,,,,,,,,,,mb,002,2019_Sep_25_0951,StressSession,3.1.3,60.07166309120283,
218,yellow,880,0.5,,,,,,0,217,217,217,,,,,,,,,,,,,,,,,,,,,mb,002,2019_Sep_25_0951,StressSession,3.1.3,60.07166309120283,
219,yellow,880,0.5,,,,,,0,218,218,218,,,,,,,,,,,,,,,,,,,,,mb,002,2019_Sep_25_0951,StressSession,3.1.3,60.07166309120283,
220,yellow,880,0.5,,,,,,0,219,219,219,,,,,,,,,,,,,,,,,,,,,mb,002,2019_Sep_25_0951,StressSession,3.1.3,60.07166309120283,
221,yellow,880,0.5,,,,,,0,220,220,220,,,,,,,,,,,,,,,,,,,,,mb,002,2019_Sep_25_0951,StressSession,3.1.3,60.07166309120283,
222,yellow,880,0.5,,,,,,0,221,221,221,,,,,,,,,,,,,,,,,,,,,mb,002,2019_Sep_25_0951,StressSession,3.1.3,60.07166309120283,
223,yellow,880,0.5,,,,,,0,222,222,222,,,,,,,,,,,,,,,,,,,,,mb,002,2019_Sep_25_0951,StressSession,3.1.3,60.07166309120283,
224,yellow,880,0.5,,,,,,0,223,223,223,,,,,,,,,,,,,,,,,,,,,mb,002,2019_Sep_25_0951,StressSession,3.1.3,60.07166309120283,
225,yellow,880,0.5,,,,,,0,224,224,224,,,,,,,,,,,,,,,,,,,,,mb,002,2019_Sep_25_0951,StressSession,3.1.3,60.07166309120283,
226,yellow,880,0.5,,,,,,0,225,225,225,,,,,,,,,,,,,,,,,,,,,mb,002,2019_Sep_25_0951,StressSession,3.1.3,60.07166309120283,
227,yellow,880,0.5,,,,,,0,226,226,226,,,,,,,,,,,,,,,,,,,,,mb,002,2019_Sep_25_0951,StressSession,3.1.3,60.07166309120283,
228,yellow,880,0.5,,,,,,0,227,227,227,,,,,,,,,,,,,,,,,,,,,mb,002,2019_Sep_25_0951,StressSession,3.1.3,60.07166309120283,
229,yellow,880,0.5,,,,,,0,228,228,228,,,,,,,,,,,,,,,,,,,,,mb,002,2019_Sep_25_0951,StressSession,3.1.3,60.07166309120283,
230,yellow,880,0.5,,,,,,0,229,229,229,,,,,,,,,,,,,,,,,,,,,mb,002,2019_Sep_25_0951,StressSession,3.1.3,60.07166309120283,
231,yellow,880,0.5,,,,,,0,230,230,230,,,,,,,,,,,,,,,,,,,,,mb,002,2019_Sep_25_0951,StressSession,3.1.3,60.07166309120283,
232,yellow,880,0.5,,,,,,0,231,231,231,,,,,,,,,,,,,,,,,,,,,mb,002,2019_Sep_25_0951,StressSession,3.1.3,60.07166309120283,
233,yellow,880,0.5,,,,,,0,232,232,232,,,,,,,,,,,,,,,,,,,,,mb,002,2019_Sep_25_0951,StressSession,3.1.3,60.07166309120283,
234,yellow,880,0.5,,,,,,0,233,233,233,,,,,,,,,,,,,,,,,,,,,mb,002,2019_Sep_25_0951,StressSession,3.1.3,60.07166309120283,
235,yellow,880,0.5,,,,,,0,234,234,234,,,,,,,,,,,,,,,,,,,,,mb,002,2019_Sep_25_0951,StressSession,3.1.3,60.07166309120283,
236,yellow,880,0.5,,,,,,0,235,235,235,,,,,,,,,,,,,,,,,,,,,mb,002,2019_Sep_25_0951,StressSession,3.1.3,60.07166309120283,
237,yellow,880,0.5,,,,,,0,236,236,236,,,,,,,,,,,,,,,,,,,,,mb,002,2019_Sep_25_0951,StressSession,3.1.3,60.07166309120283,
238,yellow,880,0.5,,,,,,0,237,237,237,,,,,,,,,,,,,,,,,,,,,mb,002,2019_Sep_25_0951,StressSession,3.1.3,60.07166309120283,
239,yellow,880,0.5,,,,,,0,238,238,238,,,,,,,,,,,,,,,,,,,,,mb,002,2019_Sep_25_0951,StressSession,3.1.3,60.07166309120283,
240,red,1760,0.5,,,,,,0,239,239,239,,,,,,,,,,,,,,,,,,,,,mb,002,2019_Sep_25_0951,StressSession,3.1.3,60.07166309120283,
241,red,1760,0.5,,,,,,0,240,240,240,,,,,,,,,,,,,,,,,,,,,mb,002,2019_Sep_25_0951,StressSession,3.1.3,60.07166309120283,
242,red,1760,0.5,,,,,,0,241,241,241,,,,,,,,,,,,,,,,,,,,,mb,002,2019_Sep_25_0951,StressSession,3.1.3,60.07166309120283,
243,red,1760,0.5,,,,,,0,242,242,242,,,,,,,,,,,,,,,,,,,,,mb,002,2019_Sep_25_0951,StressSession,3.1.3,60.07166309120283,
244,red,1760,0.5,,,,,,0,243,243,243,,,,,,,,,,,,,,,,,,,,,mb,002,2019_Sep_25_0951,StressSession,3.1.3,60.07166309120283,
245,red,1760,0.5,,,,,,0,244,244,244,,,,,,,,,,,,,,,,,,,,,mb,002,2019_Sep_25_0951,StressSession,3.1.3,60.07166309120283,
246,red,1760,0.5,,,,,,0,245,245,245,,,,,,,,,,,,,,,,,,,,,mb,002,2019_Sep_25_0951,StressSession,3.1.3,60.07166309120283,
247,red,1760,0.5,,,,,,0,246,246,246,,,,,,,,,,,,,,,,,,,,,mb,002,2019_Sep_25_0951,StressSession,3.1.3,60.07166309120283,
248,red,1760,0.5,,,,,,0,247,247,247,,,,,,,,,,,,,,,,,,,,,mb,002,2019_Sep_25_0951,StressSession,3.1.3,60.07166309120283,
249,red,1760,0.5,,,,,,0,248,248,248,,,,,,,,,,,,,,,,,,,,,mb,002,2019_Sep_25_0951,StressSession,3.1.3,60.07166309120283,
250,red,1760,0.5,,,,,,0,249,249,249,,,,,,,,,,,,,,,,,,,,,mb,002,2019_Sep_25_0951,StressSession,3.1.3,60.07166309120283,
251,red,1760,0.5,,,,,,0,250,250,250,,,,,,,,,,,,,,,,,,,,,mb,002,2019_Sep_25_0951,StressSession,3.1.3,60.07166309120283,
252,red,1760,0.5,,,,,,0,251,251,251,,,,,,,,,,,,,,,,,,,,,mb,002,2019_Sep_25_0951,StressSession,3.1.3,60.07166309120283,
253,red,1760,0.5,,,,,,0,252,252,252,,,,,,,,,,,,,,,,,,,,,mb,002,2019_Sep_25_0951,StressSession,3.1.3,60.07166309120283,
254,red,1760,0.5,,,,,,0,253,253,253,,,,,,,,,,,,,,,,,,,,,mb,002,2019_Sep_25_0951,StressSession,3.1.3,60.07166309120283,
255,red,1760,0.5,,,,,,0,254,254,254,,,,,,,,,,,,,,,,,,,,,mb,002,2019_Sep_25_0951,StressSession,3.1.3,60.07166309120283,
256,red,1760,0.5,,,,,,0,255,255,255,,,,,,,,,,,,,,,,,,,,,mb,002,2019_Sep_25_0951,StressSession,3.1.3,60.07166309120283,
257,red,1760,0.5,,,,,,0,256,256,256,,,,,,,,,,,,,,,,,,,,,mb,002,2019_Sep_25_0951,StressSession,3.1.3,60.07166309120283,
258,red,1760,0.5,,,,,,0,257,257,257,,,,,,,,,,,,,,,,,,,,,mb,002,2019_Sep_25_0951,StressSession,3.1.3,60.07166309120283,
259,red,1760,0.5,,,,,,0,258,258,258,,,,,,,,,,,,,,,,,,,,,mb,002,2019_Sep_25_0951,StressSession,3.1.3,60.07166309120283,
260,red,1760,0.5,,,,,,0,259,259,259,,,,,,,,,,,,,,,,,,,,,mb,002,2019_Sep_25_0951,StressSession,3.1.3,60.07166309120283,
261,red,1760,0.5,,,,,,0,260,260,260,,,,,,,,,,,,,,,,,,,,,mb,002,2019_Sep_25_0951,StressSession,3.1.3,60.07166309120283,
262,red,1760,0.5,,,,,,0,261,261,261,,,,,,,,,,,,,,,,,,,,,mb,002,2019_Sep_25_0951,StressSession,3.1.3,60.07166309120283,
263,red,1760,0.5,,,,,,0,262,262,262,,,,,,,,,,,,,,,,,,,,,mb,002,2019_Sep_25_0951,StressSession,3.1.3,60.07166309120283,
264,red,1760,0.5,,,,,,0,263,263,263,,,,,,,,,,,,,,,,,,,,,mb,002,2019_Sep_25_0951,StressSession,3.1.3,60.07166309120283,
265,red,1760,0.5,,,,,,0,264,264,264,,,,,,,,,,,,,,,,,,,,,mb,002,2019_Sep_25_0951,StressSession,3.1.3,60.07166309120283,
266,red,1760,0.5,,,,,,0,265,265,265,,,,,,,,,,,,,,,,,,,,,mb,002,2019_Sep_25_0951,StressSession,3.1.3,60.07166309120283,
267,red,1760,0.5,,,,,,0,266,266,266,,,,,,,,,,,,,,,,,,,,,mb,002,2019_Sep_25_0951,StressSession,3.1.3,60.07166309120283,
268,red,1760,0.5,,,,,,0,267,267,267,,,,,,,,,,,,,,,,,,,,,mb,002,2019_Sep_25_0951,StressSession,3.1.3,60.07166309120283,
269,red,1760,0.5,,,,,,0,268,268,268,,,,,,,,,,,,,,,,,,,,,mb,002,2019_Sep_25_0951,StressSession,3.1.3,60.07166309120283,
270,red,1760,0.5,,,,,,0,269,269,269,,,,,,,,,,,,,,,,,,,,,mb,002,2019_Sep_25_0951,StressSession,3.1.3,60.07166309120283,
271,red,1760,0.5,,,,,,0,270,270,270,,,,,,,,,,,,,,,,,,,,,mb,002,2019_Sep_25_0951,StressSession,3.1.3,60.07166309120283,
272,red,1760,0.5,,,,,,0,271,271,271,,,,,,,,,,,,,,,,,,,,,mb,002,2019_Sep_25_0951,StressSession,3.1.3,60.07166309120283,
273,red,1760,0.5,,,,,,0,272,272,272,,,,,,,,,,,,,,,,,,,,,mb,002,2019_Sep_25_0951,StressSession,3.1.3,60.07166309120283,
274,red,1760,0.5,,,,,,0,273,273,273,,,,,,,,,,,,,,,,,,,,,mb,002,2019_Sep_25_0951,StressSession,3.1.3,60.07166309120283,
275,red,1760,0.5,,,,,,0,274,274,274,,,,,,,,,,,,,,,,,,,,,mb,002,2019_Sep_25_0951,StressSession,3.1.3,60.07166309120283,
276,red,1760,0.5,,,,,,0,275,275,275,,,,,,,,,,,,,,,,,,,,,mb,002,2019_Sep_25_0951,StressSession,3.1.3,60.07166309120283,
277,red,1760,0.5,,,,,,0,276,276,276,,,,,,,,,,,,,,,,,,,,,mb,002,2019_Sep_25_0951,StressSession,3.1.3,60.07166309120283,
278,red,1760,0.5,,,,,,0,277,277,277,,,,,,,,,,,,,,,,,,,,,mb,002,2019_Sep_25_0951,StressSession,3.1.3,60.07166309120283,
279,red,1760,0.5,,,,,,0,278,278,278,,,,,,,,,,,,,,,,,,,,,mb,002,2019_Sep_25_0951,StressSession,3.1.3,60.07166309120283,
280,red,1760,0.5,,,,,,0,279,279,279,,,,,,,,,,,,,,,,,,,,,mb,002,2019_Sep_25_0951,StressSession,3.1.3,60.07166309120283,
281,red,1760,0.5,,,,,,0,280,280,280,,,,,,,,,,,,,,,,,,,,,mb,002,2019_Sep_25_0951,StressSession,3.1.3,60.07166309120283,
282,red,1760,0.5,,,,,,0,281,281,281,,,,,,,,,,,,,,,,,,,,,mb,002,2019_Sep_25_0951,StressSession,3.1.3,60.07166309120283,
283,red,1760,0.5,,,,,,0,282,282,282,,,,,,,,,,,,,,,,,,,,,mb,002,2019_Sep_25_0951,StressSession,3.1.3,60.07166309120283,
284,red,1760,0.5,,,,,,0,283,283,283,,,,,,,,,,,,,,,,,,,,,mb,002,2019_Sep_25_0951,StressSession,3.1.3,60.07166309120283,
285,red,1760,0.5,,,,,,0,284,284,284,,,,,,,,,,,,,,,,,,,,,mb,002,2019_Sep_25_0951,StressSession,3.1.3,60.07166309120283,
286,red,1760,0.5,,,,,,0,285,285,285,,,,,,,,,,,,,,,,,,,,,mb,002,2019_Sep_25_0951,StressSession,3.1.3,60.07166309120283,
287,red,1760,0.5,,,,,,0,286,286,286,,,,,,,,,,,,,,,,,,,,,mb,002,2019_Sep_25_0951,StressSession,3.1.3,60.07166309120283,
288,red,1760,0.5,,,,,,0,287,287,287,,,,,,,,,,,,,,,,,,,,,mb,002,2019_Sep_25_0951,StressSession,3.1.3,60.07166309120283,
289,red,1760,0.5,,,,,,0,288,288,288,,,,,,,,,,,,,,,,,,,,,mb,002,2019_Sep_25_0951,StressSession,3.1.3,60.07166309120283,
290,red,1760,0.5,,,,,,0,289,289,289,,,,,,,,,,,,,,,,,,,,,mb,002,2019_Sep_25_0951,StressSession,3.1.3,60.07166309120283,
291,red,1760,0.5,,,,,,0,290,290,290,,,,,,,,,,,,,,,,,,,,,mb,002,2019_Sep_25_0951,StressSession,3.1.3,60.07166309120283,
292,red,1760,0.5,,,,,,0,291,291,291,,,,,,,,,,,,,,,,,,,,,mb,002,2019_Sep_25_0951,StressSession,3.1.3,60.07166309120283,
293,red,1760,0.5,,,,,,0,292,292,292,,,,,,,,,,,,,,,,,,,,,mb,002,2019_Sep_25_0951,StressSession,3.1.3,60.07166309120283,
294,red,1760,0.5,,,,,,0,293,293,293,,,,,,,,,,,,,,,,,,,,,mb,002,2019_Sep_25_0951,StressSession,3.1.3,60.07166309120283,
295,red,1760,0.5,,,,,,0,294,294,294,,,,,,,,,,,,,,,,,,,,,mb,002,2019_Sep_25_0951,StressSession,3.1.3,60.07166309120283,
296,red,1760,0.5,,,,,,0,295,295,295,,,,,,,,,,,,,,,,,,,,,mb,002,2019_Sep_25_0951,StressSession,3.1.3,60.07166309120283,
297,red,1760,0.5,,,,,,0,296,296,296,,,,,,,,,,,,,,,,,,,,,mb,002,2019_Sep_25_0951,StressSession,3.1.3,60.07166309120283,
298,red,1760,0.5,,,,,,0,297,297,297,,,,,,,,,,,,,,,,,,,,,mb,002,2019_Sep_25_0951,StressSession,3.1.3,60.07166309120283,
299,red,1760,0.5,,,,,,0,298,298,298,,,,,,,,,,,,,,,,,,,,,mb,002,2019_Sep_25_0951,StressSession,3.1.3,60.07166309120283,
300,red,1760,0.5,,,,,,0,299,299,299,,,,,,,,,,,,,,,,,,,,,mb,002,2019_Sep_25_0951,StressSession,3.1.3,60.07166309120283,
,,,,,,,,,,,,,,,,,,,2019-09-25_09:59:42,4,33.339,,,,,,,,,,,,mb,002,2019_Sep_25_0951,StressSession,3.1.3,60.07166309120283,
,,,,,,,,,,,,,,,,,,,,,,5,53.656,,,,,,,,,,mb,002,2019_Sep_25_0951,StressSession,3.1.3,60.07166309120283,
,,,,red,yellow,yellow,red,left,,,,,0,0,0,114,,,,,,,,2019-09-25_10:03:43,left,1.2566067200000361,761.6026069333332,None,,,,,mb,002,2019_Sep_25_0951,StressSession,3.1.3,60.07166309120283,
,,,,orange,magenta,magenta,orange,left,,,,,0,1,1,177,,,,,,,,,left,1.3034069333334628,763.4038869333333,None,,,,,mb,002,2019_Sep_25_0951,StressSession,3.1.3,60.07166309120283,
,,,,blue,red,red,blue,left,,,,,0,2,2,129,,,,,,,,,left,1.1953493333330698,765.2398677333333,None,,,,,mb,002,2019_Sep_25_0951,StressSession,3.1.3,60.07166309120283,
,,,,purple,black,purple,black,right,,,,,0,3,3,72,,,,,,,,,right,1.481469439999728,766.9777058133334,None,,,,,mb,002,2019_Sep_25_0951,StressSession,3.1.3,60.07166309120283,
,,,,orange,cyan,cyan,orange,left,,,,,0,4,4,178,,,,,,,,,left,1.319949653333424,769.0032588800002,None,,,,,mb,002,2019_Sep_25_0951,StressSession,3.1.3,60.07166309120283,
,,,,white,purple,purple,white,left,,,,,0,5,5,208,,,,,,,,,left,1.1921459200002573,770.8753702400002,None,,,,,mb,002,2019_Sep_25_0951,StressSession,3.1.3,60.07166309120283,
,,,,yellow,cyan,cyan,yellow,left,,,,,0,6,6,169,,,,,,,,,right,0.912885333333179,772.6025041066666,None,,,,,mb,002,2019_Sep_25_0951,StressSession,3.1.3,60.07166309120283,
,,,,brown,purple,purple,brown,left,,,,,0,7,7,199,,,,,,,,,left,1.698511359999884,774.0490141866669,None,,,,,mb,002,2019_Sep_25_0951,StressSession,3.1.3,60.07166309120283,
,,,,purple,blue,blue,purple,left,,,,,0,8,8,184,,,,,,,,,left,0.8202030933334754,776.2787144533334,None,,,,,mb,002,2019_Sep_25_0951,StressSession,3.1.3,60.07166309120283,
,,,,black,yellow,yellow,black,left,,,,,0,9,9,215,,,,,,,,,left,0.7854203733331815,777.6494988800002,None,,,,,mb,002,2019_Sep_25_0951,StressSession,3.1.3,60.07166309120283,
,,,,brown,black,black,brown,left,,,,,0,10,10,191,,,,,,,,,left,1.4099174399998446,778.97728768,None,,,,,mb,002,2019_Sep_25_0951,StressSession,3.1.3,60.07166309120283,
,,,,orange,purple,purple,orange,left,,,,,0,11,11,170,,,,,,,,,left,1.1305911466665748,780.9287790933333,None,,,,,mb,002,2019_Sep_25_0951,StressSession,3.1.3,60.07166309120283,
,,,,white,blue,blue,white,left,,,,,0,12,12,202,,,,,,,,,left,1.221019733333378,782.5901171200001,None,,,,,mb,002,2019_Sep_25_0951,StressSession,3.1.3,60.07166309120283,
,,,,black,magenta,black,magenta,right,,,,,0,13,13,103,,,,,,,,,right,0.9272840533335511,784.3561407999998,None,,,,,mb,002,2019_Sep_25_0951,StressSession,3.1.3,60.07166309120283,
,,,,purple,green,purple,green,right,,,,,0,14,14,75,,,,,,,,,right,1.157643093333263,785.8215057066666,None,,,,,mb,002,2019_Sep_25_0951,StressSession,3.1.3,60.07166309120283,
,,,,green,yellow,yellow,green,left,,,,,0,15,15,132,,,,,,,,,left,0.7944281599998249,787.5125614933334,None,,,,,mb,002,2019_Sep_25_0951,StressSession,3.1.3,60.07166309120283,
,,,,magenta,cyan,cyan,magenta,left,,,,,0,16,16,140,,,,,,,,,left,0.7101294933336249,788.8609548800002,None,,,,,mb,002,2019_Sep_25_0951,StressSession,3.1.3,60.07166309120283,
,,,,magenta,green,magenta,green,right,,,,,0,17,17,39,,,,,,,,,left,0.9394636800002445,790.0958911999999,None,,,,,mb,002,2019_Sep_25_0951,StressSession,3.1.3,60.07166309120283,
,,,,green,red,red,green,left,,,,,0,18,18,138,,,,,,,,,left,1.0222929066667348,791.55669504,None,,,,,mb,002,2019_Sep_25_0951,StressSession,3.1.3,60.07166309120283,
,,,,blue,white,white,blue,left,,,,,0,19,19,127,,,,,,,,,left,1.1218414933332497,793.1132044799999,None,,,,,mb,002,2019_Sep_25_0951,StressSession,3.1.3,60.07166309120283,
,,,,cyan,purple,purple,cyan,left,,,,,0,20,20,152,,,,,,,,,right,2.102680319999763,794.7804074666667,None,,,,,mb,002,2019_Sep_25_0951,StressSession,3.1.3,60.07166309120283,
,,,,brown,white,brown,white,right,,,,,0,21,21,80,,,,,,,,,right,1.1492910933334315,797.4299686400002,None,,,,,mb,002,2019_Sep_25_0951,StressSession,3.1.3,60.07166309120283,
,,,,red,purple,purple,red,left,,,,,0,22,22,116,,,,,,,,,left,1.3685213866665435,799.1070109866666,None,,,,,mb,002,2019_Sep_25_0951,StressSession,3.1.3,60.07166309120283,
,,,,magenta,red,magenta,red,right,,,,,0,23,23,37,,,,,,,,,right,1.2532748799999354,801.0061717333335,None,,,,,mb,002,2019_Sep_25_0951,StressSession,3.1.3,60.07166309120283,
,,,,black,white,white,black,left,,,,,0,24,24,219,,,,,,,,,left,1.4299750400000448,802.7894306133333,None,,,,,mb,002,2019_Sep_25_0951,StressSession,3.1.3,60.07166309120283,
,,,,brown,yellow,yellow,brown,left,,,,,0,25,25,197,,,,,,,,,left,1.5835443200003283,804.7557943466666,None,,,,,mb,002,2019_Sep_25_0951,StressSession,3.1.3,60.07166309120283,
,,,,white,black,white,black,right,,,,,0,26,26,90,,,,,,,,,left,1.456755200000316,806.8746359466666,None,,,,,mb,002,2019_Sep_25_0951,StressSession,3.1.3,60.07166309120283,
,,,,blue,orange,orange,blue,left,,,,,0,27,27,124,,,,,,,,,left,1.696101546666796,808.8672985599999,None,,,,,mb,002,2019_Sep_25_0951,StressSession,3.1.3,60.07166309120283,
,,,,brown,white,white,brown,left,,,,,0,28,28,190,,,,,,,,,left,1.1510225066667772,811.1001314133334,None,,,,,mb,002,2019_Sep_25_0951,StressSession,3.1.3,60.07166309120283,
,,,,yellow,white,yellow,white,right,,,,,0,29,29,53,,,,,,,,,right,1.0923652266665158,812.7829508266666,None,,,,,mb,002,2019_Sep_25_0951,StressSession,3.1.3,60.07166309120283,
,,,,brown,magenta,brown,magenta,right,,,,,0,30,30,85,,,,,,,,,right,1.4516531200001737,814.4153651200002,None,,,,,mb,002,2019_Sep_25_0951,StressSession,3.1.3,60.07166309120283,
,,,,brown,green,green,brown,left,,,,,0,31,31,194,,,,,,,,,left,1.391517866666618,816.3878336,None,,,,,mb,002,2019_Sep_25_0951,StressSession,3.1.3,60.07166309120283,
,,,,yellow,brown,brown,yellow,left,,,,,0,32,32,162,,,,,,,,,left,1.6828172800001084,818.3124014933335,None,,,,,mb,002,2019_Sep_25_0951,StressSession,3.1.3,60.07166309120283,
,,,,red,green,red,green,right,,,,,0,33,33,1,,,,,,,,,right,1.4335475200000474,820.5218423466665,None,,,,,mb,002,2019_Sep_25_0951,StressSession,3.1.3,60.07166309120283,
,,,,magenta,white,white,magenta,left,,,,,0,34,34,145,,,,,,,,,left,1.8115669333333244,822.4958178133336,None,,,,,mb,002,2019_Sep_25_0951,StressSession,3.1.3,60.07166309120283,
,,,,magenta,green,green,magenta,left,,,,,0,35,35,149,,,,,,,,,left,1.730582186666652,824.8248059733335,None,,,,,mb,002,2019_Sep_25_0951,StressSession,3.1.3,60.07166309120283,
,,,,blue,red,blue,red,right,,,,,0,36,36,19,,,,,,,,,right,1.3207121066666332,827.0826884266669,None,,,,,mb,002,2019_Sep_25_0951,StressSession,3.1.3,60.07166309120283,
,,,,blue,white,blue,white,right,,,,,0,37,37,17,,,,,,,,,right,1.023431680000158,828.9237764266666,None,,,,,mb,002,2019_Sep_25_0951,StressSession,3.1.3,60.07166309120283,
,,,,green,magenta,magenta,green,left,,,,,0,38,38,130,,,,,,,,,left,1.730309546666831,830.4887940266665,None,,,,,mb,002,2019_Sep_25_0951,StressSession,3.1.3,60.07166309120283,
,,,,black,brown,black,brown,right,,,,,0,39,39,108,,,,,,,,,right,1.0867498666666506,832.7484108800002,None,,,,,mb,002,2019_Sep_25_0951,StressSession,3.1.3,60.07166309120283,
,,,,orange,cyan,orange,cyan,right,,,,,0,40,40,68,,,,,,,,,right,1.29999743999997,834.3672631466668,None,,,,,mb,002,2019_Sep_25_0951,StressSession,3.1.3,60.07166309120283,
,,,,magenta,brown,magenta,brown,right,,,,,0,41,41,34,,,,,,,,,right,1.4827097600000343,836.2165021866665,None,,,,,mb,002,2019_Sep_25_0951,StressSession,3.1.3,60.07166309120283,
,,,,brown,blue,brown,blue,right,,,,,0,42,42,83,,,,,,,,,right,1.1030668799999148,838.2280776533332,None,,,,,mb,002,2019_Sep_25_0951,StressSession,3.1.3,60.07166309120283,
,,,,blue,yellow,yellow,blue,left,,,,,0,43,43,123,,,,,,,,,left,0.6732360533333122,839.8661427200002,None,,,,,mb,002,2019_Sep_25_0951,StressSession,3.1.3,60.07166309120283,
,,,,yellow,blue,blue,yellow,left,,,,,0,44,44,166,,,,,,,,,left,0.8934549333334871,841.0775816533335,None,,,,,mb,002,2019_Sep_25_0951,StressSession,3.1.3,60.07166309120283,
,,,,black,white,black,white,right,,,,,0,45,45,109,,,,,,,,,right,1.5926856533333194,842.5064486399999,None,,,,,mb,002,2019_Sep_25_0951,StressSession,3.1.3,60.07166309120283,
,,,,purple,red,red,purple,left,,,,,0,46,46,183,,,,,,,,,left,0.9158084266668993,844.6396330666669,None,,,,,mb,002,2019_Sep_25_0951,StressSession,3.1.3,60.07166309120283,
,,,,purple,brown,purple,brown,right,,,,,0,47,47,70,,,,,,,,,right,2.5530406399998355,846.0818282666667,None,,,,,mb,002,2019_Sep_25_0951,StressSession,3.1.3,60.07166309120283,
,,,,purple,cyan,cyan,purple,left,,,,,0,48,48,187,,,,,,,,,left,0.9206229333331066,849.1625979733333,None,,,,,mb,002,2019_Sep_25_0951,StressSession,3.1.3,60.07166309120283,
,,,,green,orange,green,orange,right,,,,,0,49,49,23,,,,,,,,,right,1.80894549333334,850.6181802666667,None,,,,,mb,002,2019_Sep_25_0951,StressSession,3.1.3,60.07166309120283,
,,,,cyan,yellow,cyan,yellow,right,,,,,0,50,50,40,,,,,,,,,right,1.259369386666549,852.9675852799999,None,,,,,mb,002,2019_Sep_25_0951,StressSession,3.1.3,60.07166309120283,
,,,,purple,green,green,purple,left,,,,,0,51,51,185,,,,,,,,,left,0.9665335466665965,854.76497408,None,,,,,mb,002,2019_Sep_25_0951,StressSession,3.1.3,60.07166309120283,
,,,,white,orange,white,orange,right,,,,,0,52,52,97,,,,,,,,,right,0.9877115733333994,856.2633868800001,None,,,,,mb,002,2019_Sep_25_0951,StressSession,3.1.3,60.07166309120283,
,,,,magenta,yellow,yellow,magenta,left,,,,,0,53,53,141,,,,,,,,,left,1.2898658133331082,857.8015389866666,None,,,,,mb,002,2019_Sep_25_0951,StressSession,3.1.3,60.07166309120283,
,,,,blue,green,green,blue,left,,,,,0,54,54,120,,,,,,,,,left,0.914330026666903,859.6248260266668,None,,,,,mb,002,2019_Sep_25_0951,StressSession,3.1.3,60.07166309120283,
,,,,red,blue,red,blue,right,,,,,0,55,55,0,,,,,,,,,right,2.6502105599997776,861.0647509333332,None,,,,,mb,002,2019_Sep_25_0951,StressSession,3.1.3,60.07166309120283,
,,,,yellow,brown,yellow,brown,right,,,,,0,56,56,52,,,,,,,,,right,0.9132104533337042,864.2576661333335,None,,,,,mb,002,2019_Sep_25_0951,StressSession,3.1.3,60.07166309120283,
,,,,purple,orange,purple,orange,right,,,,,0,57,57,79,,,,,,,,,right,1.4866483199998584,865.708288,None,,,,,mb,002,2019_Sep_25_0951,StressSession,3.1.3,60.07166309120283,
,,,,red,brown,brown,red,left,,,,,0,58,58,117,,,,,,,,,right,3.174007466666808,867.7330193066666,None,,,,,mb,002,2019_Sep_25_0951,StressSession,3.1.3,60.07166309120283,
,,,,purple,black,black,purple,left,,,,,0,59,59,182,,,,,,,,,left,2.0475285333332067,871.4518378666669,None,,,,,mb,002,2019_Sep_25_0951,StressSession,3.1.3,60.07166309120283,
,,,,blue,magenta,blue,magenta,right,,,,,0,60,60,11,,,,,,,,,right,1.2841770666668708,874.0312618666669,None,,,,,mb,002,2019_Sep_25_0951,StressSession,3.1.3,60.07166309120283,
,,,,red,cyan,red,cyan,right,,,,,0,61,61,3,,,,,,,,,right,1.0399214933336225,875.8432358400003,None,,,,,mb,002,2019_Sep_25_0951,StressSession,3.1.3,60.07166309120283,
,,,,blue,black,blue,black,right,,,,,0,62,62,18,,,,,,,,,right,1.6651839999999538,877.4098944,None,,,,,mb,002,2019_Sep_25_0951,StressSession,3.1.3,60.07166309120283,
,,,,blue,cyan,blue,cyan,right,,,,,0,63,63,12,,,,,,,,,right,1.5004253866668478,879.5987097600002,None,,,,,mb,002,2019_Sep_25_0951,StressSession,3.1.3,60.07166309120283,
,,,,white,brown,white,brown,right,,,,,0,64,64,99,,,,,,,,,left,1.617463466666777,881.6419874133333,None,,,,,mb,002,2019_Sep_25_0951,StressSession,3.1.3,60.07166309120283,
,,,,green,blue,blue,green,left,,,,,0,65,65,139,,,,,,,,,left,1.5891660799998135,883.7897220266666,None,,,,,mb,002,2019_Sep_25_0951,StressSession,3.1.3,60.07166309120283,
,,,,white,magenta,magenta,white,left,,,,,0,66,66,204,,,,,,,,,left,1.4635212799998953,885.9242730666667,None,,,,,mb,002,2019_Sep_25_0951,StressSession,3.1.3,60.07166309120283,
,,,,white,green,green,white,left,,,,,0,67,67,203,,,,,,,,,left,1.0721945600002982,887.9069998933335,None,,,,,mb,002,2019_Sep_25_0951,StressSession,3.1.3,60.07166309120283,
,,,,magenta,purple,magenta,purple,right,,,,,0,68,68,33,,,,,,,,,right,4.271213653333234,889.5241655466668,None,,,,,mb,002,2019_Sep_25_0951,StressSession,3.1.3,60.07166309120283,
,,,,blue,green,blue,green,right,,,,,0,69,69,10,,,,,,,,,right,1.8712699733332556,894.33189376,None,,,,,mb,002,2019_Sep_25_0951,StressSession,3.1.3,60.07166309120283,
,,,,yellow,black,black,yellow,left,,,,,0,70,70,164,,,,,,,,,left,1.566937173333372,896.7479581866667,None,,,,,mb,002,2019_Sep_25_0951,StressSession,3.1.3,60.07166309120283,
,,,,white,blue,white,blue,right,,,,,0,71,71,92,,,,,,,,,right,2.239898880000055,898.8432375466666,None,,,,,mb,002,2019_Sep_25_0951,StressSession,3.1.3,60.07166309120283,
,,,,white,cyan,cyan,white,left,,,,,0,72,72,205,,,,,,,,,left,4.463257173333659,901.6198464000001,None,,,,,mb,002,2019_Sep_25_0951,StressSession,3.1.3,60.07166309120283,
,,,,blue,black,black,blue,left,,,,,0,73,73,128,,,,,,,,,left,1.4726331733336337,906.6185757866667,None,,,,,mb,002,2019_Sep_25_0951,StressSession,3.1.3,60.07166309120283,
,,,,orange,black,orange,black,right,,,,,0,74,74,63,,,,,,,,,right,1.1553442133331373,908.63956992,None,,,,,mb,002,2019_Sep_25_0951,StressSession,3.1.3,60.07166309120283,
,,,,black,red,black,red,right,,,,,0,75,75,100,,,,,,,,,right,1.1349307733335081,910.3324957866669,None,,,,,mb,002,2019_Sep_25_0951,StressSession,3.1.3,60.07166309120283,
,,,,blue,purple,purple,blue,left,,,,,0,76,76,125,,,,,,,,,left,1.2198327466667251,911.9993344000002,None,,,,,mb,002,2019_Sep_25_0951,StressSession,3.1.3,60.07166309120283,
,,,,black,blue,black,blue,right,,,,,0,77,77,101,,,,,,,,,right,1.5924164266666594,913.73898368,None,,,,,mb,002,2019_Sep_25_0951,StressSession,3.1.3,60.07166309120283,
,,,,brown,cyan,cyan,brown,left,,,,,0,78,78,196,,,,,,,,,left,0.8750242133332904,915.8639240533332,None,,,,,mb,002,2019_Sep_25_0951,StressSession,3.1.3,60.07166309120283,
,,,,yellow,blue,yellow,blue,right,,,,,0,79,79,56,,,,,,,,,right,1.321754879999844,917.28106624,None,,,,,mb,002,2019_Sep_25_0951,StressSession,3.1.3,60.07166309120283,
,,,,black,brown,brown,black,left,,,,,0,80,80,218,,,,,,,,,left,1.7077691733334177,919.1430711466667,None,,,,,mb,002,2019_Sep_25_0951,StressSession,3.1.3,60.07166309120283,
,,,,green,purple,purple,green,left,,,,,0,81,81,134,,,,,,,,,left,1.603292586666612,921.3918754133335,None,,,,,mb,002,2019_Sep_25_0951,StressSession,3.1.3,60.07166309120283,
,,,,green,cyan,cyan,green,left,,,,,0,82,82,131,,,,,,,,,left,0.8583232000000862,923.5129540266669,None,,,,,mb,002,2019_Sep_25_0951,StressSession,3.1.3,60.07166309120283,
,,,,purple,blue,purple,blue,right,,,,,0,83,83,74,,,,,,,,,right,1.159514880000188,924.9076876800002,None,,,,,mb,002,2019_Sep_25_0951,StressSession,3.1.3,60.07166309120283,
,,,,yellow,magenta,yellow,magenta,right,,,,,0,84,84,58,,,,,,,,,right,1.5310988799997176,926.6081877333334,None,,,,,mb,002,2019_Sep_25_0951,StressSession,3.1.3,60.07166309120283,
,,,,green,cyan,green,cyan,right,,,,,0,85,85,21,,,,,,,,,right,1.1138551466669924,928.6734387200001,None,,,,,mb,002,2019_Sep_25_0951,StressSession,3.1.3,60.07166309120283,
,,,,cyan,blue,cyan,blue,right,,,,,0,86,86,47,,,,,,,,,right,0.98112341333308,930.3181034666666,None,,,,,mb,002,2019_Sep_25_0951,StressSession,3.1.3,60.07166309120283,
,,,,black,cyan,cyan,black,left,,,,,0,87,87,214,,,,,,,,,left,1.6112426666668398,931.8241437866666,None,,,,,mb,002,2019_Sep_25_0951,StressSession,3.1.3,60.07166309120283,
,,,,blue,brown,blue,brown,right,,,,,0,88,88,16,,,,,,,,,right,1.1903129600000284,933.9645819733335,None,,,,,mb,002,2019_Sep_25_0951,StressSession,3.1.3,60.07166309120283,
,,,,black,blue,blue,black,left,,,,,0,89,89,211,,,,,,,,,left,1.1792021333330922,935.6877768533334,None,,,,,mb,002,2019_Sep_25_0951,StressSession,3.1.3,60.07166309120283,
,,,,orange,green,green,orange,left,,,,,0,90,90,176,,,,,,,,,left,1.4674833066665087,937.3995217066665,None,,,,,mb,002,2019_Sep_25_0951,StressSession,3.1.3,60.07166309120283,
,,,,orange,yellow,yellow,orange,left,,,,,0,91,91,179,,,,,,,,,left,0.835390293333603,939.3995037866669,None,,,,,mb,002,2019_Sep_25_0951,StressSession,3.1.3,60.07166309120283,
,,,,yellow,black,yellow,black,right,,,,,0,92,92,54,,,,,,,,,right,1.0875537066667675,940.7718549333333,None,,,,,mb,002,2019_Sep_25_0951,StressSession,3.1.3,60.07166309120283,
,,,,red,white,white,red,left,,,,,0,93,93,118,,,,,,,,,left,1.0708910933335574,942.3885926400001,None,,,,,mb,002,2019_Sep_25_0951,StressSession,3.1.3,60.07166309120283,
,,,,purple,yellow,purple,yellow,right,,,,,0,94,94,78,,,,,,,,,right,0.9938504533333798,943.99335296,None,,,,,mb,002,2019_Sep_25_0951,StressSession,3.1.3,60.07166309120283,
,,,,green,brown,brown,green,left,,,,,0,95,95,135,,,,,,,,,left,1.1691191466666169,945.5220902399999,None,,,,,mb,002,2019_Sep_25_0951,StressSession,3.1.3,60.07166309120283,
,,,,red,brown,red,brown,right,,,,,0,96,96,7,,,,,,,,,left,1.2022425600002862,947.2166331733335,None,,,,,mb,002,2019_Sep_25_0951,StressSession,3.1.3,60.07166309120283,
,,,,magenta,blue,magenta,blue,right,,,,,0,97,97,38,,,,,,,,,right,1.2209314133333464,948.9581610666667,None,,,,,mb,002,2019_Sep_25_0951,StressSession,3.1.3,60.07166309120283,
,,,,brown,magenta,magenta,brown,left,,,,,0,98,98,195,,,,,,,,,left,1.4184439466666845,950.7126387199999,None,,,,,mb,002,2019_Sep_25_0951,StressSession,3.1.3,60.07166309120283,
,,,,white,cyan,white,cyan,right,,,,,0,99,99,95,,,,,,,,,right,0.976142933333449,952.6671022933335,None,,,,,mb,002,2019_Sep_25_0951,StressSession,3.1.3,60.07166309120283,
,,,,orange,red,red,orange,left,,,,,0,100,100,174,,,,,,,,,left,0.9078984533334733,954.1830493866667,None,,,,,mb,002,2019_Sep_25_0951,StressSession,3.1.3,60.07166309120283,
,,,,white,yellow,white,yellow,right,,,,,0,101,101,96,,,,,,,,,right,1.8497791999998299,955.6333636266666,None,,,,,mb,002,2019_Sep_25_0951,StressSession,3.1.3,60.07166309120283,
,,,,cyan,white,cyan,white,right,,,,,0,102,102,44,,,,,,,,,right,1.2068974933331447,958.01198976,None,,,,,mb,002,2019_Sep_25_0951,StressSession,3.1.3,60.07166309120283,
,,,,magenta,orange,magenta,orange,right,,,,,0,103,103,32,,,,,,,,,right,1.0694404266669153,959.7654532266668,None,,,,,mb,002,2019_Sep_25_0951,StressSession,3.1.3,60.07166309120283,
,,,,orange,green,orange,green,right,,,,,0,104,104,66,,,,,,,,,right,1.735397546666718,961.3794931200002,None,,,,,mb,002,2019_Sep_25_0951,StressSession,3.1.3,60.07166309120283,
,,,,magenta,red,red,magenta,left,,,,,0,105,105,147,,,,,,,,,left,0.9745514666665258,963.6608558933333,None,,,,,mb,002,2019_Sep_25_0951,StressSession,3.1.3,60.07166309120283,
,,,,purple,red,purple,red,right,,,,,0,106,106,73,,,,,,,,,right,0.9502771200000097,965.1730811733335,None,,,,,mb,002,2019_Sep_25_0951,StressSession,3.1.3,60.07166309120283,
,,,,cyan,black,cyan,black,right,,,,,0,107,107,45,,,,,,,,,right,0.8182216533336941,966.6568187733335,None,,,,,mb,002,2019_Sep_25_0951,StressSession,3.1.3,60.07166309120283,
,,,,red,green,green,red,left,,,,,0,108,108,111,,,,,,,,,left,0.7471232000002601,967.9999453866669,None,,,,,mb,002,2019_Sep_25_0951,StressSession,3.1.3,60.07166309120283,
,,,,black,magenta,magenta,black,left,,,,,0,109,109,213,,,,,,,,,left,0.9559517866664464,969.2869469866666,None,,,,,mb,002,2019_Sep_25_0951,StressSession,3.1.3,60.07166309120283,
,,,,green,blue,green,blue,right,,,,,0,110,110,29,,,,,,,,,right,0.7855948800001897,970.7853294933332,None,,,,,mb,002,2019_Sep_25_0951,StressSession,3.1.3,60.07166309120283,
,,,,cyan,brown,brown,cyan,left,,,,,0,111,111,153,,,,,,,,,right,1.247130879999986,972.1001548800002,None,,,,,mb,002,2019_Sep_25_0951,StressSession,3.1.3,60.07166309120283,
,,,,green,magenta,green,magenta,right,,,,,0,112,112,20,,,,,,,,,right,1.0799197866667782,973.8835114666665,None,,,,,mb,002,2019_Sep_25_0951,StressSession,3.1.3,60.07166309120283,
,,,,orange,brown,brown,orange,left,,,,,0,113,113,171,,,,,,,,,left,1.133790719999979,975.5012898133334,None,,,,,mb,002,2019_Sep_25_0951,StressSession,3.1.3,60.07166309120283,
,,,,magenta,blue,blue,magenta,left,,,,,0,114,114,148,,,,,,,,,left,1.1227327999999943,977.1843528533334,None,,,,,mb,002,2019_Sep_25_0951,StressSession,3.1.3,60.07166309120283,
,,,,blue,cyan,cyan,blue,left,,,,,0,115,115,122,,,,,,,,,left,0.9317132800001673,978.8476770133332,None,,,,,mb,002,2019_Sep_25_0951,StressSession,3.1.3,60.07166309120283,
,,,,orange,red,orange,red,right,,,,,0,116,116,64,,,,,,,,,right,1.034935040000164,980.3119842133335,None,,,,,mb,002,2019_Sep_25_0951,StressSession,3.1.3,60.07166309120283,
,,,,blue,orange,blue,orange,right,,,,,0,117,117,14,,,,,,,,,right,1.7194636799999898,981.8754666666666,None,,,,,mb,002,2019_Sep_25_0951,StressSession,3.1.3,60.07166309120283,
,,,,green,purple,green,purple,right,,,,,0,118,118,24,,,,,,,,,right,1.2937826133334056,984.12562688,None,,,,,mb,002,2019_Sep_25_0951,StressSession,3.1.3,60.07166309120283,
,,,,red,white,red,white,right,,,,,0,119,119,8,,,,,,,,,right,0.9548663466666767,985.95248384,None,,,,,mb,002,2019_Sep_25_0951,StressSession,3.1.3,60.07166309120283,
,,,,green,black,black,green,left,,,,,0,120,120,137,,,,,,,,,left,1.0281570133333844,987.4388940800002,None,,,,,mb,002,2019_Sep_25_0951,StressSession,3.1.3,60.07166309120283,
,,,,orange,white,orange,white,right,,,,,0,121,121,62,,,,,,,,,right,0.9799398400000428,989.0074726400001,None,,,,,mb,002,2019_Sep_25_0951,StressSession,3.1.3,60.07166309120283,
,,,,yellow,green,green,yellow,left,,,,,0,122,122,167,,,,,,,,,left,1.274039466667091,990.5211042133335,None,,,,,mb,002,2019_Sep_25_0951,StressSession,3.1.3,60.07166309120283,
,,,,magenta,black,black,magenta,left,,,,,0,123,123,146,,,,,,,,,left,0.9755460266669616,992.3398826666669,None,,,,,mb,002,2019_Sep_25_0951,StressSession,3.1.3,60.07166309120283,
,,,,orange,black,black,orange,left,,,,,0,124,124,173,,,,,,,,,left,1.1879044266665915,993.8472217599999,None,,,,,mb,002,2019_Sep_25_0951,StressSession,3.1.3,60.07166309120283,
,,,,cyan,black,black,cyan,left,,,,,0,125,125,155,,,,,,,,,left,1.2751607466666428,995.5596962133334,None,,,,,mb,002,2019_Sep_25_0951,StressSession,3.1.3,60.07166309120283,
,,,,green,yellow,green,yellow,right,,,,,0,126,126,22,,,,,,,,,left,0.7507161600001382,997.3807381333334,None,,,,,mb,002,2019_Sep_25_0951,StressSession,3.1.3,60.07166309120283,
,,,,yellow,white,white,yellow,left,,,,,0,127,127,163,,,,,,,,,left,1.793225386667018,998.6577254400001,None,,,,,mb,002,2019_Sep_25_0951,StressSession,3.1.3,60.07166309120283,
,,,,purple,orange,orange,purple,left,,,,,0,128,128,189,,,,,,,,,left,2.239490986666624,1000.9956300800002,None,,,,,mb,002,2019_Sep_25_0951,StressSession,3.1.3,60.07166309120283,
,,,,yellow,magenta,magenta,yellow,left,,,,,0,129,129,168,,,,,,,,,left,1.1685307733332593,1003.7783714133332,None,,,,,mb,002,2019_Sep_25_0951,StressSession,3.1.3,60.07166309120283,
,,,,green,orange,orange,green,left,,,,,0,130,130,133,,,,,,,,,right,1.0929207466665503,1005.4939682133333,None,,,,,mb,002,2019_Sep_25_0951,StressSession,3.1.3,60.07166309120283,
,,,,cyan,orange,orange,cyan,left,,,,,0,131,131,151,,,,,,,,,left,6.746066346666794,1007.1129736533333,None,,,,,mb,002,2019_Sep_25_0951,StressSession,3.1.3,60.07166309120283,
,,,,white,green,white,green,right,,,,,0,132,132,93,,,,,,,,,right,2.130622293333545,1014.4402743466669,None,,,,,mb,002,2019_Sep_25_0951,StressSession,3.1.3,60.07166309120283,
,,,,magenta,orange,orange,magenta,left,,,,,0,133,133,142,,,,,,,,,right,2.5568298666667033,1017.1182604799999,None,,,,,mb,002,2019_Sep_25_0951,StressSession,3.1.3,60.07166309120283,
,,,,white,red,red,white,left,,,,,0,134,134,201,,,,,,,,,left,1.832794026666761,1020.2106833066666,None,,,,,mb,002,2019_Sep_25_0951,StressSession,3.1.3,60.07166309120283,
,,,,black,orange,orange,black,left,,,,,0,135,135,216,,,,,,,,,left,1.2103978666664261,1022.5766493866665,None,,,,,mb,002,2019_Sep_25_0951,StressSession,3.1.3,60.07166309120283,
,,,,green,brown,green,brown,right,,,,,0,136,136,25,,,,,,,,,right,1.5495701333329635,1024.3257941333334,None,,,,,mb,002,2019_Sep_25_0951,StressSession,3.1.3,60.07166309120283,
,,,,red,magenta,magenta,red,left,,,,,0,137,137,112,,,,,,,,,left,1.0384883199999422,1026.4044322133334,None,,,,,mb,002,2019_Sep_25_0951,StressSession,3.1.3,60.07166309120283,
,,,,green,red,green,red,right,,,,,0,138,138,28,,,,,,,,,right,1.1820919466667874,1027.9808366933332,None,,,,,mb,002,2019_Sep_25_0951,StressSession,3.1.3,60.07166309120283,
,,,,yellow,purple,purple,yellow,left,,,,,0,139,139,161,,,,,,,,,left,1.2559257599996272,1029.7071172266667,None,,,,,mb,002,2019_Sep_25_0951,StressSession,3.1.3,60.07166309120283,
,,,,orange,white,white,orange,left,,,,,0,140,140,172,,,,,,,,,left,1.081730986666571,1031.5054784000001,None,,,,,mb,002,2019_Sep_25_0951,StressSession,3.1.3,60.07166309120283,
,,,,yellow,red,yellow,red,right,,,,,0,141,141,55,,,,,,,,,right,1.4299208533329875,1033.1172782933334,None,,,,,mb,002,2019_Sep_25_0951,StressSession,3.1.3,60.07166309120283,
,,,,red,cyan,cyan,red,left,,,,,0,142,142,113,,,,,,,,,left,1.2025838933336672,1035.072306346667,None,,,,,mb,002,2019_Sep_25_0951,StressSession,3.1.3,60.07166309120283,
,,,,black,yellow,black,yellow,right,,,,,0,143,143,105,,,,,,,,,right,1.125573973333303,1036.8133794133335,None,,,,,mb,002,2019_Sep_25_0951,StressSession,3.1.3,60.07166309120283,
,,,,blue,purple,blue,purple,right,,,,,0,144,144,15,,,,,,,,,right,0.9935428266667259,1038.4818372266666,None,,,,,mb,002,2019_Sep_25_0951,StressSession,3.1.3,60.07166309120283,
,,,,orange,magenta,orange,magenta,right,,,,,0,145,145,67,,,,,,,,,right,1.3389661866667666,1040.0163268266667,None,,,,,mb,002,2019_Sep_25_0951,StressSession,3.1.3,60.07166309120283,
,,,,blue,magenta,magenta,blue,left,,,,,0,146,146,121,,,,,,,,,left,1.221367040000132,1041.8936964266666,None,,,,,mb,002,2019_Sep_25_0951,StressSession,3.1.3,60.07166309120283,
,,,,magenta,purple,purple,magenta,left,,,,,0,147,147,143,,,,,,,,,left,1.3710425600002054,1043.6642235733332,None,,,,,mb,002,2019_Sep_25_0951,StressSession,3.1.3,60.07166309120283,
,,,,cyan,magenta,magenta,cyan,left,,,,,0,148,148,159,,,,,,,,,left,1.6993412266665473,1045.5758067200002,None,,,,,mb,002,2019_Sep_25_0951,StressSession,3.1.3,60.07166309120283,
,,,,brown,red,brown,red,right,,,,,0,149,149,82,,,,,,,,,right,1.2138457599999128,1047.8054685866666,None,,,,,mb,002,2019_Sep_25_0951,StressSession,3.1.3,60.07166309120283,
,,,,brown,green,brown,green,right,,,,,0,150,150,84,,,,,,,,,right,1.1182084266665697,1049.5409143466666,None,,,,,mb,002,2019_Sep_25_0951,StressSession,3.1.3,60.07166309120283,
,,,,brown,red,red,brown,left,,,,,0,151,151,192,,,,,,,,,left,0.8340565333332961,1051.1930043733335,None,,,,,mb,002,2019_Sep_25_0951,StressSession,3.1.3,60.07166309120283,
,,,,red,black,black,red,left,,,,,0,152,152,119,,,,,,,,,right,1.1196509866667839,1052.5631957333333,None,,,,,mb,002,2019_Sep_25_0951,StressSession,3.1.3,60.07166309120283,
,,,,purple,white,white,purple,left,,,,,0,153,153,181,,,,,,,,,left,2.687501653333584,1054.2195677866669,None,,,,,mb,002,2019_Sep_25_0951,StressSession,3.1.3,60.07166309120283,
,,,,yellow,orange,orange,yellow,left,,,,,0,154,154,160,,,,,,,,,left,0.8975547733334679,1057.4498197333335,None,,,,,mb,002,2019_Sep_25_0951,StressSession,3.1.3,60.07166309120283,
,,,,white,purple,white,purple,right,,,,,0,155,155,98,,,,,,,,,right,0.8182532266664566,1058.88069888,None,,,,,mb,002,2019_Sep_25_0951,StressSession,3.1.3,60.07166309120283,
,,,,cyan,magenta,cyan,magenta,right,,,,,0,156,156,49,,,,,,,,,right,1.156423679999989,1060.2304460799999,None,,,,,mb,002,2019_Sep_25_0951,StressSession,3.1.3,60.07166309120283,
,,,,red,orange,orange,red,left,,,,,0,157,157,115,,,,,,,,,left,0.6807739733335438,1061.9223842133335,None,,,,,mb,002,2019_Sep_25_0951,StressSession,3.1.3,60.07166309120283,
,,,,brown,cyan,brown,cyan,right,,,,,0,158,158,86,,,,,,,,,right,1.1640763733335007,1063.1428198400001,None,,,,,mb,002,2019_Sep_25_0951,StressSession,3.1.3,60.07166309120283,
,,,,blue,yellow,blue,yellow,right,,,,,0,159,159,13,,,,,,,,,right,3.360584533333167,1064.84280832,None,,,,,mb,002,2019_Sep_25_0951,StressSession,3.1.3,60.07166309120283,
,,,,black,green,green,black,left,,,,,0,160,160,212,,,,,,,,,left,0.9714585599999737,1068.7356842666666,None,,,,,mb,002,2019_Sep_25_0951,StressSession,3.1.3,60.07166309120283,
,,,,white,magenta,white,magenta,right,,,,,0,161,161,94,,,,,,,,,right,1.6445806933334097,1070.2385454933335,None,,,,,mb,002,2019_Sep_25_0951,StressSession,3.1.3,60.07166309120283,
,,,,white,yellow,yellow,white,left,,,,,0,162,162,206,,,,,,,,,left,1.4068091733333858,1072.4125909333331,None,,,,,mb,002,2019_Sep_25_0951,StressSession,3.1.3,60.07166309120283,
,,,,brown,purple,brown,purple,right,,,,,0,163,163,89,,,,,,,,,right,1.5232183466664537,1074.3516437333335,None,,,,,mb,002,2019_Sep_25_0951,StressSession,3.1.3,60.07166309120283,
,,,,purple,magenta,magenta,purple,left,,,,,0,164,164,186,,,,,,,,,left,1.1825514666666095,1076.41286144,None,,,,,mb,002,2019_Sep_25_0951,StressSession,3.1.3,60.07166309120283,
,,,,brown,orange,brown,orange,right,,,,,0,165,165,88,,,,,,,,,right,1.6475199999999859,1078.13189632,None,,,,,mb,002,2019_Sep_25_0951,StressSession,3.1.3,60.07166309120283,
,,,,black,green,black,green,right,,,,,0,166,166,102,,,,,,,,,right,1.4841203200003292,1080.3113356800002,None,,,,,mb,002,2019_Sep_25_0951,StressSession,3.1.3,60.07166309120283,
,,,,cyan,red,cyan,red,right,,,,,0,167,167,46,,,,,,,,,right,1.0458986666667442,1082.3254997333336,None,,,,,mb,002,2019_Sep_25_0951,StressSession,3.1.3,60.07166309120283,
,,,,yellow,cyan,yellow,cyan,right,,,,,0,168,168,59,,,,,,,,,right,1.1237542399999256,1083.9113838933333,None,,,,,mb,002,2019_Sep_25_0951,StressSession,3.1.3,60.07166309120283,
,,,,green,white,green,white,right,,,,,0,169,169,26,,,,,,,,,right,1.3653158400002212,1085.5736081066668,None,,,,,mb,002,2019_Sep_25_0951,StressSession,3.1.3,60.07166309120283,
,,,,red,yellow,red,yellow,right,,,,,0,170,170,4,,,,,,,,,right,0.6935133866668366,1087.4693888,None,,,,,mb,002,2019_Sep_25_0951,StressSession,3.1.3,60.07166309120283,
,,,,black,orange,black,orange,right,,,,,0,171,171,106,,,,,,,,,right,0.8332215466666639,1088.7061819733333,None,,,,,mb,002,2019_Sep_25_0951,StressSession,3.1.3,60.07166309120283,
,,,,magenta,yellow,magenta,yellow,right,,,,,0,172,172,31,,,,,,,,,right,1.808860160000222,1090.0745587200001,None,,,,,mb,002,2019_Sep_25_0951,StressSession,3.1.3,60.07166309120283,
,,,,red,blue,blue,red,left,,,,,0,173,173,110,,,,,,,,,left,1.3409280000000763,1092.4142237866665,None,,,,,mb,002,2019_Sep_25_0951,StressSession,3.1.3,60.07166309120283,
,,,,green,black,green,black,right,,,,,0,174,174,27,,,,,,,,,right,1.971027199999753,1094.2882397866667,None,,,,,mb,002,2019_Sep_25_0951,StressSession,3.1.3,60.07166309120283,
,,,,orange,purple,orange,purple,right,,,,,0,175,175,60,,,,,,,,,right,1.7603835733334563,1096.8025028266668,None,,,,,mb,002,2019_Sep_25_0951,StressSession,3.1.3,60.07166309120283,
,,,,black,purple,purple,black,left,,,,,0,176,176,217,,,,,,,,,left,1.7294464000001426,1099.0974084266666,None,,,,,mb,002,2019_Sep_25_0951,StressSession,3.1.3,60.07166309120283,
,,,,black,red,red,black,left,,,,,0,177,177,210,,,,,,,,,left,1.5837102933332972,1101.34743296,None,,,,,mb,002,2019_Sep_25_0951,StressSession,3.1.3,60.07166309120283,
,,,,brown,blue,blue,brown,left,,,,,0,178,178,193,,,,,,,,,left,1.6542894933331809,1103.4606293333334,None,,,,,mb,002,2019_Sep_25_0951,StressSession,3.1.3,60.07166309120283,
,,,,orange,brown,orange,brown,right,,,,,0,179,179,61,,,,,,,,,right,1.7803315199998906,1105.6550698666667,None,,,,,mb,002,2019_Sep_25_0951,StressSession,3.1.3,60.07166309120283,
,,,,cyan,green,cyan,green,right,,,,,0,180,180,48,,,,,,,,,right,0.7904426666668769,1107.9724078933334,None,,,,,mb,002,2019_Sep_25_0951,StressSession,3.1.3,60.07166309120283,
,,,,magenta,cyan,magenta,cyan,right,,,,,0,181,181,30,,,,,,,,,right,0.8121028266664325,1109.3112512,None,,,,,mb,002,2019_Sep_25_0951,StressSession,3.1.3,60.07166309120283,
,,,,orange,blue,blue,orange,left,,,,,0,182,182,175,,,,,,,,,left,3.5638190933332226,1110.6556740266667,None,,,,,mb,002,2019_Sep_25_0951,StressSession,3.1.3,60.07166309120283,
,,,,orange,yellow,orange,yellow,right,,,,,0,183,183,69,,,,,,,,,right,1.2885760000003756,1114.7466683733335,None,,,,,mb,002,2019_Sep_25_0951,StressSession,3.1.3,60.07166309120283,
,,,,magenta,white,magenta,white,right,,,,,0,184,184,35,,,,,,,,,right,1.0884514133331322,1116.5709943466666,None,,,,,mb,002,2019_Sep_25_0951,StressSession,3.1.3,60.07166309120283,
,,,,brown,black,brown,black,right,,,,,0,185,185,81,,,,,,,,,right,0.7099063466666848,1118.19730688,None,,,,,mb,002,2019_Sep_25_0951,StressSession,3.1.3,60.07166309120283,
,,,,black,cyan,black,cyan,right,,,,,0,186,186,104,,,,,,,,,right,0.6612552533333655,1119.4458419200002,None,,,,,mb,002,2019_Sep_25_0951,StressSession,3.1.3,60.07166309120283,
,,,,cyan,brown,cyan,brown,right,,,,,0,187,187,43,,,,,,,,,right,1.5339178666667976,1120.6455697066665,None,,,,,mb,002,2019_Sep_25_0951,StressSession,3.1.3,60.07166309120283,
,,,,brown,yellow,brown,yellow,right,,,,,0,188,188,87,,,,,,,,,right,0.7388168533334465,1122.7121608533332,None,,,,,mb,002,2019_Sep_25_0951,StressSession,3.1.3,60.07166309120283,
,,,,purple,brown,brown,purple,left,,,,,0,189,189,180,,,,,,,,,left,1.3392443733332584,1123.9918284799999,None,,,,,mb,002,2019_Sep_25_0951,StressSession,3.1.3,60.07166309120283,
,,,,magenta,black,magenta,black,right,,,,,0,190,190,36,,,,,,,,,right,1.4115268266664316,1125.8798647466667,None,,,,,mb,002,2019_Sep_25_0951,StressSession,3.1.3,60.07166309120283,
,,,,cyan,blue,blue,cyan,left,,,,,0,191,191,157,,,,,,,,,left,1.1811686400001236,1127.8222481066666,None,,,,,mb,002,2019_Sep_25_0951,StressSession,3.1.3,60.07166309120283,
,,,,cyan,purple,cyan,purple,right,,,,,0,192,192,42,,,,,,,,,right,0.8782916266668508,1129.5328106666668,None,,,,,mb,002,2019_Sep_25_0951,StressSession,3.1.3,60.07166309120283,
,,,,magenta,brown,brown,magenta,left,,,,,0,193,193,144,,,,,,,,,left,0.9408721066665748,1130.9585450666666,None,,,,,mb,002,2019_Sep_25_0951,StressSession,3.1.3,60.07166309120283,
,,,,purple,white,purple,white,right,,,,,0,194,194,71,,,,,,,,,right,0.9078374399996392,1132.4393988266668,None,,,,,mb,002,2019_Sep_25_0951,StressSession,3.1.3,60.07166309120283,
,,,,cyan,yellow,yellow,cyan,left,,,,,0,195,195,150,,,,,,,,,left,0.9019818666665742,1133.8850734933333,None,,,,,mb,002,2019_Sep_25_0951,StressSession,3.1.3,60.07166309120283,
,,,,red,magenta,red,magenta,right,,,,,0,196,196,2,,,,,,,,,right,0.7036010666665788,1135.3154299733335,None,,,,,mb,002,2019_Sep_25_0951,StressSession,3.1.3,60.07166309120283,
,,,,white,orange,orange,white,left,,,,,0,197,197,207,,,,,,,,,left,1.067861759999687,1136.5512793599999,None,,,,,mb,002,2019_Sep_25_0951,StressSession,3.1.3,60.07166309120283,
,,,,white,red,white,red,right,,,,,0,198,198,91,,,,,,,,,right,0.6723520000000462,1138.1545591466668,None,,,,,mb,002,2019_Sep_25_0951,StressSession,3.1.3,60.07166309120283,
,,,,white,brown,brown,white,left,,,,,0,199,199,209,,,,,,,,,left,0.8774139733336597,1139.3574438399999,None,,,,,mb,002,2019_Sep_25_0951,StressSession,3.1.3,60.07166309120283,
,,,,yellow,orange,yellow,orange,right,,,,,0,200,200,50,,,,,,,,,right,0.6208076799998707,1140.78205056,None,,,,,mb,002,2019_Sep_25_0951,StressSession,3.1.3,60.07166309120283,
,,,,blue,brown,brown,blue,left,,,,,0,201,201,126,,,,,,,,,left,0.7245516800003315,1141.9425706666668,None,,,,,mb,002,2019_Sep_25_0951,StressSession,3.1.3,60.07166309120283,
,,,,cyan,orange,cyan,orange,right,,,,,0,202,202,41,,,,,,,,,right,1.0076168533332748,1143.21147008,None,,,,,mb,002,2019_Sep_25_0951,StressSession,3.1.3,60.07166309120283,
,,,,purple,magenta,purple,magenta,right,,,,,0,203,203,76,,,,,,,,,right,0.8083682133333241,1144.7630178133334,None,,,,,mb,002,2019_Sep_25_0951,StressSession,3.1.3,60.07166309120283,
,,,,red,black,red,black,right,,,,,0,204,204,9,,,,,,,,,left,0.9447590400000081,1146.1065322666666,None,,,,,mb,002,2019_Sep_25_0951,StressSession,3.1.3,60.07166309120283,
,,,,yellow,purple,yellow,purple,right,,,,,0,205,205,51,,,,,,,,,right,0.7461960533332785,1147.5932394666668,None,,,,,mb,002,2019_Sep_25_0951,StressSession,3.1.3,60.07166309120283,
,,,,white,black,black,white,left,,,,,0,206,206,200,,,,,,,,,left,1.0737676799999463,1148.873084586667,None,,,,,mb,002,2019_Sep_25_0951,StressSession,3.1.3,60.07166309120283,
,,,,cyan,green,green,cyan,left,,,,,0,207,207,158,,,,,,,,,left,0.8982011733332911,1150.4892544000002,None,,,,,mb,002,2019_Sep_25_0951,StressSession,3.1.3,60.07166309120283,
,,,,red,orange,red,orange,right,,,,,0,208,208,5,,,,,,,,,right,0.6860518399998909,1151.9173098666668,None,,,,,mb,002,2019_Sep_25_0951,StressSession,3.1.3,60.07166309120283,
,,,,red,purple,red,purple,right,,,,,0,209,209,6,,,,,,,,,right,0.7267507199999272,1153.1241480533333,None,,,,,mb,002,2019_Sep_25_0951,StressSession,3.1.3,60.07166309120283,
,,,,yellow,green,yellow,green,right,,,,,0,210,210,57,,,,,,,,,right,0.7536819199999627,1154.3854016000003,None,,,,,mb,002,2019_Sep_25_0951,StressSession,3.1.3,60.07166309120283,
,,,,cyan,red,red,cyan,left,,,,,0,211,211,156,,,,,,,,,left,0.7373764266667422,1155.681824,None,,,,,mb,002,2019_Sep_25_0951,StressSession,3.1.3,60.07166309120283,
,,,,purple,yellow,yellow,purple,left,,,,,0,212,212,188,,,,,,,,,right,0.6196356266668772,1156.9514884266666,None,,,,,mb,002,2019_Sep_25_0951,StressSession,3.1.3,60.07166309120283,
,,,,green,white,white,green,left,,,,,0,213,213,136,,,,,,,,,left,1.1849156266666796,1158.1145800533334,None,,,,,mb,002,2019_Sep_25_0951,StressSession,3.1.3,60.07166309120283,
,,,,black,purple,black,purple,right,,,,,0,214,214,107,,,,,,,,,right,0.6309111466666764,1159.8284881066668,None,,,,,mb,002,2019_Sep_25_0951,StressSession,3.1.3,60.07166309120283,
,,,,brown,orange,orange,brown,left,,,,,0,215,215,198,,,,,,,,,left,0.9884317866667516,1160.9986594133331,None,,,,,mb,002,2019_Sep_25_0951,StressSession,3.1.3,60.07166309120283,
,,,,cyan,white,white,cyan,left,,,,,0,216,216,154,,,,,,,,,left,0.6588381866667987,1162.52823552,None,,,,,mb,002,2019_Sep_25_0951,StressSession,3.1.3,60.07166309120283,
,,,,yellow,red,red,yellow,left,,,,,0,217,217,165,,,,,,,,,left,0.8922193066664477,1163.7269354666666,None,,,,,mb,002,2019_Sep_25_0951,StressSession,3.1.3,60.07166309120283,
,,,,orange,blue,orange,blue,right,,,,,0,218,218,65,,,,,,,,,right,0.7786018133333528,1165.1604949333334,None,,,,,mb,002,2019_Sep_25_0951,StressSession,3.1.3,60.07166309120283,
,,,,purple,cyan,purple,cyan,right,,,,,0,219,219,77,,,,,,,,,right,1.6982126933335167,1166.4809988266668,None,,,,,mb,002,2019_Sep_25_0951,StressSession,3.1.3,60.07166309120283,
,,,,,,,,,,,,,,,,,,,,7,41.582,,,,,,,,2019-09-25_10:10:32,,,,mb,002,2019_Sep_25_0951,StressSession,3.1.3,60.07166309120283,
,,,,,,,,,,,,,,,,,,,,,,6,8.088,,,,,,,,,,mb,002,2019_Sep_25_0951,StressSession,3.1.3,60.07166309120283,
,,,,,,,,,,,,,,,,,,,,2,16.43,,,,,,,,,2019-09-25_10:11:56,2019-09-25_10:16:56,,mb,002,2019_Sep_25_0951,StressSession,3.1.3,60.07166309120283,
,,,,,,,,,,,,,,,,,,,,,,,,,,,,,,,,2019-09-25_10:17:15,,,,,,,
