Tick,Color,tick.thisRepN,tick.thisTrialN,tick.thisN,tick.thisIndex,text_welcome_screen.started,text_welcome_screen.stopped,text_baseline_measurement.started,text_baseline_measurement.stopped,participant,session,date,expName,psychopyVersion,frameRate,
1,green,0,0,0,0,12.552238000003854,None,36.2323092000006,None,,001,2019_Aug_08_2005,MTEC_paradigm,3.1.3,147.79278859086196,
2,green,0,1,1,1,,,,,,001,2019_Aug_08_2005,MTEC_paradigm,3.1.3,147.79278859086196,
3,green,0,2,2,2,,,,,,001,2019_Aug_08_2005,MTEC_paradigm,3.1.3,147.79278859086196,
4,green,0,3,3,3,,,,,,001,2019_Aug_08_2005,MTEC_paradigm,3.1.3,147.79278859086196,
5,green,0,4,4,4,,,,,,001,2019_Aug_08_2005,MTEC_paradigm,3.1.3,147.79278859086196,
6,green,0,5,5,5,,,,,,001,2019_Aug_08_2005,MTEC_paradigm,3.1.3,147.79278859086196,
7,green,0,6,6,6,,,,,,001,2019_Aug_08_2005,MTEC_paradigm,3.1.3,147.79278859086196,
8,green,0,7,7,7,,,,,,001,2019_Aug_08_2005,MTEC_paradigm,3.1.3,147.79278859086196,
9,green,0,8,8,8,,,,,,001,2019_Aug_08_2005,MTEC_paradigm,3.1.3,147.79278859086196,
10,green,0,9,9,9,,,,,,001,2019_Aug_08_2005,MTEC_paradigm,3.1.3,147.79278859086196,
11,green,0,10,10,10,,,,,,001,2019_Aug_08_2005,MTEC_paradigm,3.1.3,147.79278859086196,
12,green,0,11,11,11,,,,,,001,2019_Aug_08_2005,MTEC_paradigm,3.1.3,147.79278859086196,
13,green,0,12,12,12,,,,,,001,2019_Aug_08_2005,MTEC_paradigm,3.1.3,147.79278859086196,
14,green,0,13,13,13,,,,,,001,2019_Aug_08_2005,MTEC_paradigm,3.1.3,147.79278859086196,
15,green,0,14,14,14,,,,,,001,2019_Aug_08_2005,MTEC_paradigm,3.1.3,147.79278859086196,
16,green,0,15,15,15,,,,,,001,2019_Aug_08_2005,MTEC_paradigm,3.1.3,147.79278859086196,
17,green,0,16,16,16,,,,,,001,2019_Aug_08_2005,MTEC_paradigm,3.1.3,147.79278859086196,
18,green,0,17,17,17,,,,,,001,2019_Aug_08_2005,MTEC_paradigm,3.1.3,147.79278859086196,
19,green,0,18,18,18,,,,,,001,2019_Aug_08_2005,MTEC_paradigm,3.1.3,147.79278859086196,
20,green,0,19,19,19,,,,,,001,2019_Aug_08_2005,MTEC_paradigm,3.1.3,147.79278859086196,
21,green,0,20,20,20,,,,,,001,2019_Aug_08_2005,MTEC_paradigm,3.1.3,147.79278859086196,
22,green,0,21,21,21,,,,,,001,2019_Aug_08_2005,MTEC_paradigm,3.1.3,147.79278859086196,
23,green,0,22,22,22,,,,,,001,2019_Aug_08_2005,MTEC_paradigm,3.1.3,147.79278859086196,
24,green,0,23,23,23,,,,,,001,2019_Aug_08_2005,MTEC_paradigm,3.1.3,147.79278859086196,
25,green,0,24,24,24,,,,,,001,2019_Aug_08_2005,MTEC_paradigm,3.1.3,147.79278859086196,
26,green,0,25,25,25,,,,,,001,2019_Aug_08_2005,MTEC_paradigm,3.1.3,147.79278859086196,
27,green,0,26,26,26,,,,,,001,2019_Aug_08_2005,MTEC_paradigm,3.1.3,147.79278859086196,
28,green,0,27,27,27,,,,,,001,2019_Aug_08_2005,MTEC_paradigm,3.1.3,147.79278859086196,
29,green,0,28,28,28,,,,,,001,2019_Aug_08_2005,MTEC_paradigm,3.1.3,147.79278859086196,
30,green,0,29,29,29,,,,,,001,2019_Aug_08_2005,MTEC_paradigm,3.1.3,147.79278859086196,
31,green,0,30,30,30,,,,,,001,2019_Aug_08_2005,MTEC_paradigm,3.1.3,147.79278859086196,
32,green,0,31,31,31,,,,,,001,2019_Aug_08_2005,MTEC_paradigm,3.1.3,147.79278859086196,
33,green,0,32,32,32,,,,,,001,2019_Aug_08_2005,MTEC_paradigm,3.1.3,147.79278859086196,
34,green,0,33,33,33,,,,,,001,2019_Aug_08_2005,MTEC_paradigm,3.1.3,147.79278859086196,
35,green,0,34,34,34,,,,,,001,2019_Aug_08_2005,MTEC_paradigm,3.1.3,147.79278859086196,
36,green,0,35,35,35,,,,,,001,2019_Aug_08_2005,MTEC_paradigm,3.1.3,147.79278859086196,
37,green,0,36,36,36,,,,,,001,2019_Aug_08_2005,MTEC_paradigm,3.1.3,147.79278859086196,
38,green,0,37,37,37,,,,,,001,2019_Aug_08_2005,MTEC_paradigm,3.1.3,147.79278859086196,
39,green,0,38,38,38,,,,,,001,2019_Aug_08_2005,MTEC_paradigm,3.1.3,147.79278859086196,
40,green,0,39,39,39,,,,,,001,2019_Aug_08_2005,MTEC_paradigm,3.1.3,147.79278859086196,
41,green,0,40,40,40,,,,,,001,2019_Aug_08_2005,MTEC_paradigm,3.1.3,147.79278859086196,
42,green,0,41,41,41,,,,,,001,2019_Aug_08_2005,MTEC_paradigm,3.1.3,147.79278859086196,
43,green,0,42,42,42,,,,,,001,2019_Aug_08_2005,MTEC_paradigm,3.1.3,147.79278859086196,
44,green,0,43,43,43,,,,,,001,2019_Aug_08_2005,MTEC_paradigm,3.1.3,147.79278859086196,
45,green,0,44,44,44,,,,,,001,2019_Aug_08_2005,MTEC_paradigm,3.1.3,147.79278859086196,
46,green,0,45,45,45,,,,,,001,2019_Aug_08_2005,MTEC_paradigm,3.1.3,147.79278859086196,
47,green,0,46,46,46,,,,,,001,2019_Aug_08_2005,MTEC_paradigm,3.1.3,147.79278859086196,
48,green,0,47,47,47,,,,,,001,2019_Aug_08_2005,MTEC_paradigm,3.1.3,147.79278859086196,
49,green,0,48,48,48,,,,,,001,2019_Aug_08_2005,MTEC_paradigm,3.1.3,147.79278859086196,
50,green,0,49,49,49,,,,,,001,2019_Aug_08_2005,MTEC_paradigm,3.1.3,147.79278859086196,
51,green,0,50,50,50,,,,,,001,2019_Aug_08_2005,MTEC_paradigm,3.1.3,147.79278859086196,
52,green,0,51,51,51,,,,,,001,2019_Aug_08_2005,MTEC_paradigm,3.1.3,147.79278859086196,
53,green,0,52,52,52,,,,,,001,2019_Aug_08_2005,MTEC_paradigm,3.1.3,147.79278859086196,
54,green,0,53,53,53,,,,,,001,2019_Aug_08_2005,MTEC_paradigm,3.1.3,147.79278859086196,
55,green,0,54,54,54,,,,,,001,2019_Aug_08_2005,MTEC_paradigm,3.1.3,147.79278859086196,
56,green,0,55,55,55,,,,,,001,2019_Aug_08_2005,MTEC_paradigm,3.1.3,147.79278859086196,
57,green,0,56,56,56,,,,,,001,2019_Aug_08_2005,MTEC_paradigm,3.1.3,147.79278859086196,
58,green,0,57,57,57,,,,,,001,2019_Aug_08_2005,MTEC_paradigm,3.1.3,147.79278859086196,
59,green,0,58,58,58,,,,,,001,2019_Aug_08_2005,MTEC_paradigm,3.1.3,147.79278859086196,
60,green,0,59,59,59,,,,,,001,2019_Aug_08_2005,MTEC_paradigm,3.1.3,147.79278859086196,
61,green,0,60,60,60,,,,,,001,2019_Aug_08_2005,MTEC_paradigm,3.1.3,147.79278859086196,
62,green,0,61,61,61,,,,,,001,2019_Aug_08_2005,MTEC_paradigm,3.1.3,147.79278859086196,
63,green,0,62,62,62,,,,,,001,2019_Aug_08_2005,MTEC_paradigm,3.1.3,147.79278859086196,
64,green,0,63,63,63,,,,,,001,2019_Aug_08_2005,MTEC_paradigm,3.1.3,147.79278859086196,
65,green,0,64,64,64,,,,,,001,2019_Aug_08_2005,MTEC_paradigm,3.1.3,147.79278859086196,
66,green,0,65,65,65,,,,,,001,2019_Aug_08_2005,MTEC_paradigm,3.1.3,147.79278859086196,
67,green,0,66,66,66,,,,,,001,2019_Aug_08_2005,MTEC_paradigm,3.1.3,147.79278859086196,
68,green,0,67,67,67,,,,,,001,2019_Aug_08_2005,MTEC_paradigm,3.1.3,147.79278859086196,
69,green,0,68,68,68,,,,,,001,2019_Aug_08_2005,MTEC_paradigm,3.1.3,147.79278859086196,
70,green,0,69,69,69,,,,,,001,2019_Aug_08_2005,MTEC_paradigm,3.1.3,147.79278859086196,
71,green,0,70,70,70,,,,,,001,2019_Aug_08_2005,MTEC_paradigm,3.1.3,147.79278859086196,
72,green,0,71,71,71,,,,,,001,2019_Aug_08_2005,MTEC_paradigm,3.1.3,147.79278859086196,
73,green,0,72,72,72,,,,,,001,2019_Aug_08_2005,MTEC_paradigm,3.1.3,147.79278859086196,
74,green,0,73,73,73,,,,,,001,2019_Aug_08_2005,MTEC_paradigm,3.1.3,147.79278859086196,
75,green,0,74,74,74,,,,,,001,2019_Aug_08_2005,MTEC_paradigm,3.1.3,147.79278859086196,
76,green,0,75,75,75,,,,,,001,2019_Aug_08_2005,MTEC_paradigm,3.1.3,147.79278859086196,
77,green,0,76,76,76,,,,,,001,2019_Aug_08_2005,MTEC_paradigm,3.1.3,147.79278859086196,
78,green,0,77,77,77,,,,,,001,2019_Aug_08_2005,MTEC_paradigm,3.1.3,147.79278859086196,
79,green,0,78,78,78,,,,,,001,2019_Aug_08_2005,MTEC_paradigm,3.1.3,147.79278859086196,
80,green,0,79,79,79,,,,,,001,2019_Aug_08_2005,MTEC_paradigm,3.1.3,147.79278859086196,
81,green,0,80,80,80,,,,,,001,2019_Aug_08_2005,MTEC_paradigm,3.1.3,147.79278859086196,
82,green,0,81,81,81,,,,,,001,2019_Aug_08_2005,MTEC_paradigm,3.1.3,147.79278859086196,
83,green,0,82,82,82,,,,,,001,2019_Aug_08_2005,MTEC_paradigm,3.1.3,147.79278859086196,
84,green,0,83,83,83,,,,,,001,2019_Aug_08_2005,MTEC_paradigm,3.1.3,147.79278859086196,
85,green,0,84,84,84,,,,,,001,2019_Aug_08_2005,MTEC_paradigm,3.1.3,147.79278859086196,
86,green,0,85,85,85,,,,,,001,2019_Aug_08_2005,MTEC_paradigm,3.1.3,147.79278859086196,
87,green,0,86,86,86,,,,,,001,2019_Aug_08_2005,MTEC_paradigm,3.1.3,147.79278859086196,
88,green,0,87,87,87,,,,,,001,2019_Aug_08_2005,MTEC_paradigm,3.1.3,147.79278859086196,
89,green,0,88,88,88,,,,,,001,2019_Aug_08_2005,MTEC_paradigm,3.1.3,147.79278859086196,
90,green,0,89,89,89,,,,,,001,2019_Aug_08_2005,MTEC_paradigm,3.1.3,147.79278859086196,
91,green,0,90,90,90,,,,,,001,2019_Aug_08_2005,MTEC_paradigm,3.1.3,147.79278859086196,
92,green,0,91,91,91,,,,,,001,2019_Aug_08_2005,MTEC_paradigm,3.1.3,147.79278859086196,
93,green,0,92,92,92,,,,,,001,2019_Aug_08_2005,MTEC_paradigm,3.1.3,147.79278859086196,
94,green,0,93,93,93,,,,,,001,2019_Aug_08_2005,MTEC_paradigm,3.1.3,147.79278859086196,
95,green,0,94,94,94,,,,,,001,2019_Aug_08_2005,MTEC_paradigm,3.1.3,147.79278859086196,
96,green,0,95,95,95,,,,,,001,2019_Aug_08_2005,MTEC_paradigm,3.1.3,147.79278859086196,
97,green,0,96,96,96,,,,,,001,2019_Aug_08_2005,MTEC_paradigm,3.1.3,147.79278859086196,
98,green,0,97,97,97,,,,,,001,2019_Aug_08_2005,MTEC_paradigm,3.1.3,147.79278859086196,
99,green,0,98,98,98,,,,,,001,2019_Aug_08_2005,MTEC_paradigm,3.1.3,147.79278859086196,
100,green,0,99,99,99,,,,,,001,2019_Aug_08_2005,MTEC_paradigm,3.1.3,147.79278859086196,
101,green,0,100,100,100,,,,,,001,2019_Aug_08_2005,MTEC_paradigm,3.1.3,147.79278859086196,
102,green,0,101,101,101,,,,,,001,2019_Aug_08_2005,MTEC_paradigm,3.1.3,147.79278859086196,
103,green,0,102,102,102,,,,,,001,2019_Aug_08_2005,MTEC_paradigm,3.1.3,147.79278859086196,
104,green,0,103,103,103,,,,,,001,2019_Aug_08_2005,MTEC_paradigm,3.1.3,147.79278859086196,
105,green,0,104,104,104,,,,,,001,2019_Aug_08_2005,MTEC_paradigm,3.1.3,147.79278859086196,
106,green,0,105,105,105,,,,,,001,2019_Aug_08_2005,MTEC_paradigm,3.1.3,147.79278859086196,
107,green,0,106,106,106,,,,,,001,2019_Aug_08_2005,MTEC_paradigm,3.1.3,147.79278859086196,
108,green,0,107,107,107,,,,,,001,2019_Aug_08_2005,MTEC_paradigm,3.1.3,147.79278859086196,
109,green,0,108,108,108,,,,,,001,2019_Aug_08_2005,MTEC_paradigm,3.1.3,147.79278859086196,
110,green,0,109,109,109,,,,,,001,2019_Aug_08_2005,MTEC_paradigm,3.1.3,147.79278859086196,
111,green,0,110,110,110,,,,,,001,2019_Aug_08_2005,MTEC_paradigm,3.1.3,147.79278859086196,
112,green,0,111,111,111,,,,,,001,2019_Aug_08_2005,MTEC_paradigm,3.1.3,147.79278859086196,
113,green,0,112,112,112,,,,,,001,2019_Aug_08_2005,MTEC_paradigm,3.1.3,147.79278859086196,
114,green,0,113,113,113,,,,,,001,2019_Aug_08_2005,MTEC_paradigm,3.1.3,147.79278859086196,
115,green,0,114,114,114,,,,,,001,2019_Aug_08_2005,MTEC_paradigm,3.1.3,147.79278859086196,
116,green,0,115,115,115,,,,,,001,2019_Aug_08_2005,MTEC_paradigm,3.1.3,147.79278859086196,
117,green,0,116,116,116,,,,,,001,2019_Aug_08_2005,MTEC_paradigm,3.1.3,147.79278859086196,
118,green,0,117,117,117,,,,,,001,2019_Aug_08_2005,MTEC_paradigm,3.1.3,147.79278859086196,
119,green,0,118,118,118,,,,,,001,2019_Aug_08_2005,MTEC_paradigm,3.1.3,147.79278859086196,
120,green,0,119,119,119,,,,,,001,2019_Aug_08_2005,MTEC_paradigm,3.1.3,147.79278859086196,
121,green,0,120,120,120,,,,,,001,2019_Aug_08_2005,MTEC_paradigm,3.1.3,147.79278859086196,
122,green,0,121,121,121,,,,,,001,2019_Aug_08_2005,MTEC_paradigm,3.1.3,147.79278859086196,
123,green,0,122,122,122,,,,,,001,2019_Aug_08_2005,MTEC_paradigm,3.1.3,147.79278859086196,
124,green,0,123,123,123,,,,,,001,2019_Aug_08_2005,MTEC_paradigm,3.1.3,147.79278859086196,
125,green,0,124,124,124,,,,,,001,2019_Aug_08_2005,MTEC_paradigm,3.1.3,147.79278859086196,
126,green,0,125,125,125,,,,,,001,2019_Aug_08_2005,MTEC_paradigm,3.1.3,147.79278859086196,
127,green,0,126,126,126,,,,,,001,2019_Aug_08_2005,MTEC_paradigm,3.1.3,147.79278859086196,
128,green,0,127,127,127,,,,,,001,2019_Aug_08_2005,MTEC_paradigm,3.1.3,147.79278859086196,
129,green,0,128,128,128,,,,,,001,2019_Aug_08_2005,MTEC_paradigm,3.1.3,147.79278859086196,
130,green,0,129,129,129,,,,,,001,2019_Aug_08_2005,MTEC_paradigm,3.1.3,147.79278859086196,
131,green,0,130,130,130,,,,,,001,2019_Aug_08_2005,MTEC_paradigm,3.1.3,147.79278859086196,
132,green,0,131,131,131,,,,,,001,2019_Aug_08_2005,MTEC_paradigm,3.1.3,147.79278859086196,
133,green,0,132,132,132,,,,,,001,2019_Aug_08_2005,MTEC_paradigm,3.1.3,147.79278859086196,
134,green,0,133,133,133,,,,,,001,2019_Aug_08_2005,MTEC_paradigm,3.1.3,147.79278859086196,
135,green,0,134,134,134,,,,,,001,2019_Aug_08_2005,MTEC_paradigm,3.1.3,147.79278859086196,
136,green,0,135,135,135,,,,,,001,2019_Aug_08_2005,MTEC_paradigm,3.1.3,147.79278859086196,
137,green,0,136,136,136,,,,,,001,2019_Aug_08_2005,MTEC_paradigm,3.1.3,147.79278859086196,
138,green,0,137,137,137,,,,,,001,2019_Aug_08_2005,MTEC_paradigm,3.1.3,147.79278859086196,
139,green,0,138,138,138,,,,,,001,2019_Aug_08_2005,MTEC_paradigm,3.1.3,147.79278859086196,
140,green,0,139,139,139,,,,,,001,2019_Aug_08_2005,MTEC_paradigm,3.1.3,147.79278859086196,
141,green,0,140,140,140,,,,,,001,2019_Aug_08_2005,MTEC_paradigm,3.1.3,147.79278859086196,
142,green,0,141,141,141,,,,,,001,2019_Aug_08_2005,MTEC_paradigm,3.1.3,147.79278859086196,
143,green,0,142,142,142,,,,,,001,2019_Aug_08_2005,MTEC_paradigm,3.1.3,147.79278859086196,
144,green,0,143,143,143,,,,,,001,2019_Aug_08_2005,MTEC_paradigm,3.1.3,147.79278859086196,
145,green,0,144,144,144,,,,,,001,2019_Aug_08_2005,MTEC_paradigm,3.1.3,147.79278859086196,
146,green,0,145,145,145,,,,,,001,2019_Aug_08_2005,MTEC_paradigm,3.1.3,147.79278859086196,
147,green,0,146,146,146,,,,,,001,2019_Aug_08_2005,MTEC_paradigm,3.1.3,147.79278859086196,
148,green,0,147,147,147,,,,,,001,2019_Aug_08_2005,MTEC_paradigm,3.1.3,147.79278859086196,
149,green,0,148,148,148,,,,,,001,2019_Aug_08_2005,MTEC_paradigm,3.1.3,147.79278859086196,
150,green,0,149,149,149,,,,,,001,2019_Aug_08_2005,MTEC_paradigm,3.1.3,147.79278859086196,
151,green,0,150,150,150,,,,,,001,2019_Aug_08_2005,MTEC_paradigm,3.1.3,147.79278859086196,
152,green,0,151,151,151,,,,,,001,2019_Aug_08_2005,MTEC_paradigm,3.1.3,147.79278859086196,
153,green,0,152,152,152,,,,,,001,2019_Aug_08_2005,MTEC_paradigm,3.1.3,147.79278859086196,
154,green,0,153,153,153,,,,,,001,2019_Aug_08_2005,MTEC_paradigm,3.1.3,147.79278859086196,
155,green,0,154,154,154,,,,,,001,2019_Aug_08_2005,MTEC_paradigm,3.1.3,147.79278859086196,
156,green,0,155,155,155,,,,,,001,2019_Aug_08_2005,MTEC_paradigm,3.1.3,147.79278859086196,
157,green,0,156,156,156,,,,,,001,2019_Aug_08_2005,MTEC_paradigm,3.1.3,147.79278859086196,
158,green,0,157,157,157,,,,,,001,2019_Aug_08_2005,MTEC_paradigm,3.1.3,147.79278859086196,
159,green,0,158,158,158,,,,,,001,2019_Aug_08_2005,MTEC_paradigm,3.1.3,147.79278859086196,
160,green,0,159,159,159,,,,,,001,2019_Aug_08_2005,MTEC_paradigm,3.1.3,147.79278859086196,
161,green,0,160,160,160,,,,,,001,2019_Aug_08_2005,MTEC_paradigm,3.1.3,147.79278859086196,
162,green,0,161,161,161,,,,,,001,2019_Aug_08_2005,MTEC_paradigm,3.1.3,147.79278859086196,
163,green,0,162,162,162,,,,,,001,2019_Aug_08_2005,MTEC_paradigm,3.1.3,147.79278859086196,
164,green,0,163,163,163,,,,,,001,2019_Aug_08_2005,MTEC_paradigm,3.1.3,147.79278859086196,
165,green,0,164,164,164,,,,,,001,2019_Aug_08_2005,MTEC_paradigm,3.1.3,147.79278859086196,
166,green,0,165,165,165,,,,,,001,2019_Aug_08_2005,MTEC_paradigm,3.1.3,147.79278859086196,
167,green,0,166,166,166,,,,,,001,2019_Aug_08_2005,MTEC_paradigm,3.1.3,147.79278859086196,
168,green,0,167,167,167,,,,,,001,2019_Aug_08_2005,MTEC_paradigm,3.1.3,147.79278859086196,
169,green,0,168,168,168,,,,,,001,2019_Aug_08_2005,MTEC_paradigm,3.1.3,147.79278859086196,
170,green,0,169,169,169,,,,,,001,2019_Aug_08_2005,MTEC_paradigm,3.1.3,147.79278859086196,
171,green,0,170,170,170,,,,,,001,2019_Aug_08_2005,MTEC_paradigm,3.1.3,147.79278859086196,
172,green,0,171,171,171,,,,,,001,2019_Aug_08_2005,MTEC_paradigm,3.1.3,147.79278859086196,
173,green,0,172,172,172,,,,,,001,2019_Aug_08_2005,MTEC_paradigm,3.1.3,147.79278859086196,
174,green,0,173,173,173,,,,,,001,2019_Aug_08_2005,MTEC_paradigm,3.1.3,147.79278859086196,
175,green,0,174,174,174,,,,,,001,2019_Aug_08_2005,MTEC_paradigm,3.1.3,147.79278859086196,
176,green,0,175,175,175,,,,,,001,2019_Aug_08_2005,MTEC_paradigm,3.1.3,147.79278859086196,
177,green,0,176,176,176,,,,,,001,2019_Aug_08_2005,MTEC_paradigm,3.1.3,147.79278859086196,
178,green,0,177,177,177,,,,,,001,2019_Aug_08_2005,MTEC_paradigm,3.1.3,147.79278859086196,
179,green,0,178,178,178,,,,,,001,2019_Aug_08_2005,MTEC_paradigm,3.1.3,147.79278859086196,
180,green,0,179,179,179,,,,,,001,2019_Aug_08_2005,MTEC_paradigm,3.1.3,147.79278859086196,
181,green,0,180,180,180,,,,,,001,2019_Aug_08_2005,MTEC_paradigm,3.1.3,147.79278859086196,
182,green,0,181,181,181,,,,,,001,2019_Aug_08_2005,MTEC_paradigm,3.1.3,147.79278859086196,
183,green,0,182,182,182,,,,,,001,2019_Aug_08_2005,MTEC_paradigm,3.1.3,147.79278859086196,
184,green,0,183,183,183,,,,,,001,2019_Aug_08_2005,MTEC_paradigm,3.1.3,147.79278859086196,
185,green,0,184,184,184,,,,,,001,2019_Aug_08_2005,MTEC_paradigm,3.1.3,147.79278859086196,
186,green,0,185,185,185,,,,,,001,2019_Aug_08_2005,MTEC_paradigm,3.1.3,147.79278859086196,
187,green,0,186,186,186,,,,,,001,2019_Aug_08_2005,MTEC_paradigm,3.1.3,147.79278859086196,
188,green,0,187,187,187,,,,,,001,2019_Aug_08_2005,MTEC_paradigm,3.1.3,147.79278859086196,
189,green,0,188,188,188,,,,,,001,2019_Aug_08_2005,MTEC_paradigm,3.1.3,147.79278859086196,
190,green,0,189,189,189,,,,,,001,2019_Aug_08_2005,MTEC_paradigm,3.1.3,147.79278859086196,
191,green,0,190,190,190,,,,,,001,2019_Aug_08_2005,MTEC_paradigm,3.1.3,147.79278859086196,
192,green,0,191,191,191,,,,,,001,2019_Aug_08_2005,MTEC_paradigm,3.1.3,147.79278859086196,
193,green,0,192,192,192,,,,,,001,2019_Aug_08_2005,MTEC_paradigm,3.1.3,147.79278859086196,
194,green,0,193,193,193,,,,,,001,2019_Aug_08_2005,MTEC_paradigm,3.1.3,147.79278859086196,
195,green,0,194,194,194,,,,,,001,2019_Aug_08_2005,MTEC_paradigm,3.1.3,147.79278859086196,
196,green,0,195,195,195,,,,,,001,2019_Aug_08_2005,MTEC_paradigm,3.1.3,147.79278859086196,
197,green,0,196,196,196,,,,,,001,2019_Aug_08_2005,MTEC_paradigm,3.1.3,147.79278859086196,
198,green,0,197,197,197,,,,,,001,2019_Aug_08_2005,MTEC_paradigm,3.1.3,147.79278859086196,
199,green,0,198,198,198,,,,,,001,2019_Aug_08_2005,MTEC_paradigm,3.1.3,147.79278859086196,
200,green,0,199,199,199,,,,,,001,2019_Aug_08_2005,MTEC_paradigm,3.1.3,147.79278859086196,
201,green,0,200,200,200,,,,,,001,2019_Aug_08_2005,MTEC_paradigm,3.1.3,147.79278859086196,
202,green,0,201,201,201,,,,,,001,2019_Aug_08_2005,MTEC_paradigm,3.1.3,147.79278859086196,
203,green,0,202,202,202,,,,,,001,2019_Aug_08_2005,MTEC_paradigm,3.1.3,147.79278859086196,
204,green,0,203,203,203,,,,,,001,2019_Aug_08_2005,MTEC_paradigm,3.1.3,147.79278859086196,
205,green,0,204,204,204,,,,,,001,2019_Aug_08_2005,MTEC_paradigm,3.1.3,147.79278859086196,
206,green,0,205,205,205,,,,,,001,2019_Aug_08_2005,MTEC_paradigm,3.1.3,147.79278859086196,
207,green,0,206,206,206,,,,,,001,2019_Aug_08_2005,MTEC_paradigm,3.1.3,147.79278859086196,
208,green,0,207,207,207,,,,,,001,2019_Aug_08_2005,MTEC_paradigm,3.1.3,147.79278859086196,
209,green,0,208,208,208,,,,,,001,2019_Aug_08_2005,MTEC_paradigm,3.1.3,147.79278859086196,
210,green,0,209,209,209,,,,,,001,2019_Aug_08_2005,MTEC_paradigm,3.1.3,147.79278859086196,
211,green,0,210,210,210,,,,,,001,2019_Aug_08_2005,MTEC_paradigm,3.1.3,147.79278859086196,
212,green,0,211,211,211,,,,,,001,2019_Aug_08_2005,MTEC_paradigm,3.1.3,147.79278859086196,
213,green,0,212,212,212,,,,,,001,2019_Aug_08_2005,MTEC_paradigm,3.1.3,147.79278859086196,
214,green,0,213,213,213,,,,,,001,2019_Aug_08_2005,MTEC_paradigm,3.1.3,147.79278859086196,
215,green,0,214,214,214,,,,,,001,2019_Aug_08_2005,MTEC_paradigm,3.1.3,147.79278859086196,
216,green,0,215,215,215,,,,,,001,2019_Aug_08_2005,MTEC_paradigm,3.1.3,147.79278859086196,
217,green,0,216,216,216,,,,,,001,2019_Aug_08_2005,MTEC_paradigm,3.1.3,147.79278859086196,
218,green,0,217,217,217,,,,,,001,2019_Aug_08_2005,MTEC_paradigm,3.1.3,147.79278859086196,
219,green,0,218,218,218,,,,,,001,2019_Aug_08_2005,MTEC_paradigm,3.1.3,147.79278859086196,
220,green,0,219,219,219,,,,,,001,2019_Aug_08_2005,MTEC_paradigm,3.1.3,147.79278859086196,
221,green,0,220,220,220,,,,,,001,2019_Aug_08_2005,MTEC_paradigm,3.1.3,147.79278859086196,
222,green,0,221,221,221,,,,,,001,2019_Aug_08_2005,MTEC_paradigm,3.1.3,147.79278859086196,
223,green,0,222,222,222,,,,,,001,2019_Aug_08_2005,MTEC_paradigm,3.1.3,147.79278859086196,
224,green,0,223,223,223,,,,,,001,2019_Aug_08_2005,MTEC_paradigm,3.1.3,147.79278859086196,
225,green,0,224,224,224,,,,,,001,2019_Aug_08_2005,MTEC_paradigm,3.1.3,147.79278859086196,
226,green,0,225,225,225,,,,,,001,2019_Aug_08_2005,MTEC_paradigm,3.1.3,147.79278859086196,
227,green,0,226,226,226,,,,,,001,2019_Aug_08_2005,MTEC_paradigm,3.1.3,147.79278859086196,
228,green,0,227,227,227,,,,,,001,2019_Aug_08_2005,MTEC_paradigm,3.1.3,147.79278859086196,
229,green,0,228,228,228,,,,,,001,2019_Aug_08_2005,MTEC_paradigm,3.1.3,147.79278859086196,
230,green,0,229,229,229,,,,,,001,2019_Aug_08_2005,MTEC_paradigm,3.1.3,147.79278859086196,
231,green,0,230,230,230,,,,,,001,2019_Aug_08_2005,MTEC_paradigm,3.1.3,147.79278859086196,
232,green,0,231,231,231,,,,,,001,2019_Aug_08_2005,MTEC_paradigm,3.1.3,147.79278859086196,
233,green,0,232,232,232,,,,,,001,2019_Aug_08_2005,MTEC_paradigm,3.1.3,147.79278859086196,
234,green,0,233,233,233,,,,,,001,2019_Aug_08_2005,MTEC_paradigm,3.1.3,147.79278859086196,
235,green,0,234,234,234,,,,,,001,2019_Aug_08_2005,MTEC_paradigm,3.1.3,147.79278859086196,
236,green,0,235,235,235,,,,,,001,2019_Aug_08_2005,MTEC_paradigm,3.1.3,147.79278859086196,
237,green,0,236,236,236,,,,,,001,2019_Aug_08_2005,MTEC_paradigm,3.1.3,147.79278859086196,
238,green,0,237,237,237,,,,,,001,2019_Aug_08_2005,MTEC_paradigm,3.1.3,147.79278859086196,
239,green,0,238,238,238,,,,,,001,2019_Aug_08_2005,MTEC_paradigm,3.1.3,147.79278859086196,
240,red,0,239,239,239,,,,,,001,2019_Aug_08_2005,MTEC_paradigm,3.1.3,147.79278859086196,
241,red,0,240,240,240,,,,,,001,2019_Aug_08_2005,MTEC_paradigm,3.1.3,147.79278859086196,
242,red,0,241,241,241,,,,,,001,2019_Aug_08_2005,MTEC_paradigm,3.1.3,147.79278859086196,
243,red,0,242,242,242,,,,,,001,2019_Aug_08_2005,MTEC_paradigm,3.1.3,147.79278859086196,
244,red,0,243,243,243,,,,,,001,2019_Aug_08_2005,MTEC_paradigm,3.1.3,147.79278859086196,
245,red,0,244,244,244,,,,,,001,2019_Aug_08_2005,MTEC_paradigm,3.1.3,147.79278859086196,
246,red,0,245,245,245,,,,,,001,2019_Aug_08_2005,MTEC_paradigm,3.1.3,147.79278859086196,
247,red,0,246,246,246,,,,,,001,2019_Aug_08_2005,MTEC_paradigm,3.1.3,147.79278859086196,
248,red,0,247,247,247,,,,,,001,2019_Aug_08_2005,MTEC_paradigm,3.1.3,147.79278859086196,
249,red,0,248,248,248,,,,,,001,2019_Aug_08_2005,MTEC_paradigm,3.1.3,147.79278859086196,
250,red,0,249,249,249,,,,,,001,2019_Aug_08_2005,MTEC_paradigm,3.1.3,147.79278859086196,
251,red,0,250,250,250,,,,,,001,2019_Aug_08_2005,MTEC_paradigm,3.1.3,147.79278859086196,
252,red,0,251,251,251,,,,,,001,2019_Aug_08_2005,MTEC_paradigm,3.1.3,147.79278859086196,
253,red,0,252,252,252,,,,,,001,2019_Aug_08_2005,MTEC_paradigm,3.1.3,147.79278859086196,
254,red,0,253,253,253,,,,,,001,2019_Aug_08_2005,MTEC_paradigm,3.1.3,147.79278859086196,
255,red,0,254,254,254,,,,,,001,2019_Aug_08_2005,MTEC_paradigm,3.1.3,147.79278859086196,
256,red,0,255,255,255,,,,,,001,2019_Aug_08_2005,MTEC_paradigm,3.1.3,147.79278859086196,
257,red,0,256,256,256,,,,,,001,2019_Aug_08_2005,MTEC_paradigm,3.1.3,147.79278859086196,
258,red,0,257,257,257,,,,,,001,2019_Aug_08_2005,MTEC_paradigm,3.1.3,147.79278859086196,
259,red,0,258,258,258,,,,,,001,2019_Aug_08_2005,MTEC_paradigm,3.1.3,147.79278859086196,
260,red,0,259,259,259,,,,,,001,2019_Aug_08_2005,MTEC_paradigm,3.1.3,147.79278859086196,
261,red,0,260,260,260,,,,,,001,2019_Aug_08_2005,MTEC_paradigm,3.1.3,147.79278859086196,
262,red,0,261,261,261,,,,,,001,2019_Aug_08_2005,MTEC_paradigm,3.1.3,147.79278859086196,
263,red,0,262,262,262,,,,,,001,2019_Aug_08_2005,MTEC_paradigm,3.1.3,147.79278859086196,
264,red,0,263,263,263,,,,,,001,2019_Aug_08_2005,MTEC_paradigm,3.1.3,147.79278859086196,
265,red,0,264,264,264,,,,,,001,2019_Aug_08_2005,MTEC_paradigm,3.1.3,147.79278859086196,
266,red,0,265,265,265,,,,,,001,2019_Aug_08_2005,MTEC_paradigm,3.1.3,147.79278859086196,
267,red,0,266,266,266,,,,,,001,2019_Aug_08_2005,MTEC_paradigm,3.1.3,147.79278859086196,
268,red,0,267,267,267,,,,,,001,2019_Aug_08_2005,MTEC_paradigm,3.1.3,147.79278859086196,
269,red,0,268,268,268,,,,,,001,2019_Aug_08_2005,MTEC_paradigm,3.1.3,147.79278859086196,
270,red,0,269,269,269,,,,,,001,2019_Aug_08_2005,MTEC_paradigm,3.1.3,147.79278859086196,
271,red,0,270,270,270,,,,,,001,2019_Aug_08_2005,MTEC_paradigm,3.1.3,147.79278859086196,
272,red,0,271,271,271,,,,,,001,2019_Aug_08_2005,MTEC_paradigm,3.1.3,147.79278859086196,
273,red,0,272,272,272,,,,,,001,2019_Aug_08_2005,MTEC_paradigm,3.1.3,147.79278859086196,
274,red,0,273,273,273,,,,,,001,2019_Aug_08_2005,MTEC_paradigm,3.1.3,147.79278859086196,
275,red,0,274,274,274,,,,,,001,2019_Aug_08_2005,MTEC_paradigm,3.1.3,147.79278859086196,
276,red,0,275,275,275,,,,,,001,2019_Aug_08_2005,MTEC_paradigm,3.1.3,147.79278859086196,
277,red,0,276,276,276,,,,,,001,2019_Aug_08_2005,MTEC_paradigm,3.1.3,147.79278859086196,
278,red,0,277,277,277,,,,,,001,2019_Aug_08_2005,MTEC_paradigm,3.1.3,147.79278859086196,
279,red,0,278,278,278,,,,,,001,2019_Aug_08_2005,MTEC_paradigm,3.1.3,147.79278859086196,
280,red,0,279,279,279,,,,,,001,2019_Aug_08_2005,MTEC_paradigm,3.1.3,147.79278859086196,
281,red,0,280,280,280,,,,,,001,2019_Aug_08_2005,MTEC_paradigm,3.1.3,147.79278859086196,
282,red,0,281,281,281,,,,,,001,2019_Aug_08_2005,MTEC_paradigm,3.1.3,147.79278859086196,
283,red,0,282,282,282,,,,,,001,2019_Aug_08_2005,MTEC_paradigm,3.1.3,147.79278859086196,
284,red,0,283,283,283,,,,,,001,2019_Aug_08_2005,MTEC_paradigm,3.1.3,147.79278859086196,
285,red,0,284,284,284,,,,,,001,2019_Aug_08_2005,MTEC_paradigm,3.1.3,147.79278859086196,
286,red,0,285,285,285,,,,,,001,2019_Aug_08_2005,MTEC_paradigm,3.1.3,147.79278859086196,
287,red,0,286,286,286,,,,,,001,2019_Aug_08_2005,MTEC_paradigm,3.1.3,147.79278859086196,
288,red,0,287,287,287,,,,,,001,2019_Aug_08_2005,MTEC_paradigm,3.1.3,147.79278859086196,
289,red,0,288,288,288,,,,,,001,2019_Aug_08_2005,MTEC_paradigm,3.1.3,147.79278859086196,
290,red,0,289,289,289,,,,,,001,2019_Aug_08_2005,MTEC_paradigm,3.1.3,147.79278859086196,
291,red,0,290,290,290,,,,,,001,2019_Aug_08_2005,MTEC_paradigm,3.1.3,147.79278859086196,
292,red,0,291,291,291,,,,,,001,2019_Aug_08_2005,MTEC_paradigm,3.1.3,147.79278859086196,
293,red,0,292,292,292,,,,,,001,2019_Aug_08_2005,MTEC_paradigm,3.1.3,147.79278859086196,
294,red,0,293,293,293,,,,,,001,2019_Aug_08_2005,MTEC_paradigm,3.1.3,147.79278859086196,
295,red,0,294,294,294,,,,,,001,2019_Aug_08_2005,MTEC_paradigm,3.1.3,147.79278859086196,
296,red,0,295,295,295,,,,,,001,2019_Aug_08_2005,MTEC_paradigm,3.1.3,147.79278859086196,
