Tick	Color	Tone	TimeDur	WordItem	WordColor	AnsLeft	AnsRight	AnsCorr	tick.thisRepN	tick.thisTrialN	tick.thisN	tick.thisIndex	stroop_trials.thisRepN	stroop_trials.thisTrialN	stroop_trials.thisN	stroop_trials.thisIndex	start_session_two	start_stress_one	end_stress_one	rating_evaluation_one.response	rating_evaluation_one.rt	rating_evaluation_two.response	rating_evaluation_two.rt	start_stress_two	key_resp_part_two_meas.keys	key_resp_part_two_meas.rt	key_resp_part_two_meas.started	key_resp_part_two_meas.stopped	end_stress_two	start_cooldown_measurement	end_cooldown_measurement	end_session_two	participant	session	date	expName	psychopyVersion	frameRate
1	green	440	1.0						0	0	0	0					2019-09-25_13:21:25	2019-09-25_13:22:49															mch	2	2019_Sep_25_1321	StressSession	03.01.2003	5.999.170.674.664.610
2	green	440	1.0						0	1	1	1																					mch	2	2019_Sep_25_1321	StressSession	03.01.2003	5.999.170.674.664.610
3	green	440	1.0						0	2	2	2																					mch	2	2019_Sep_25_1321	StressSession	03.01.2003	5.999.170.674.664.610
4	green	440	1.0						0	3	3	3																					mch	2	2019_Sep_25_1321	StressSession	03.01.2003	5.999.170.674.664.610
5	green	440	1.0						0	4	4	4																					mch	2	2019_Sep_25_1321	StressSession	03.01.2003	5.999.170.674.664.610
6	green	440	1.0						0	5	5	5																					mch	2	2019_Sep_25_1321	StressSession	03.01.2003	5.999.170.674.664.610
7	green	440	1.0						0	6	6	6																					mch	2	2019_Sep_25_1321	StressSession	03.01.2003	5.999.170.674.664.610
8	green	440	1.0						0	7	7	7																					mch	2	2019_Sep_25_1321	StressSession	03.01.2003	5.999.170.674.664.610
9	green	440	1.0						0	8	8	8																					mch	2	2019_Sep_25_1321	StressSession	03.01.2003	5.999.170.674.664.610
10	green	440	1.0						0	9	9	9																					mch	2	2019_Sep_25_1321	StressSession	03.01.2003	5.999.170.674.664.610
11	green	440	1.0						0	10	10	10																					mch	2	2019_Sep_25_1321	StressSession	03.01.2003	5.999.170.674.664.610
12	green	440	1.0						0	11	11	11																					mch	2	2019_Sep_25_1321	StressSession	03.01.2003	5.999.170.674.664.610
13	green	440	1.0						0	12	12	12																					mch	2	2019_Sep_25_1321	StressSession	03.01.2003	5.999.170.674.664.610
14	green	440	1.0						0	13	13	13																					mch	2	2019_Sep_25_1321	StressSession	03.01.2003	5.999.170.674.664.610
15	green	440	1.0						0	14	14	14																					mch	2	2019_Sep_25_1321	StressSession	03.01.2003	5.999.170.674.664.610
16	green	440	1.0						0	15	15	15																					mch	2	2019_Sep_25_1321	StressSession	03.01.2003	5.999.170.674.664.610
17	green	440	1.0						0	16	16	16																					mch	2	2019_Sep_25_1321	StressSession	03.01.2003	5.999.170.674.664.610
18	green	440	1.0						0	17	17	17																					mch	2	2019_Sep_25_1321	StressSession	03.01.2003	5.999.170.674.664.610
19	green	440	1.0						0	18	18	18																					mch	2	2019_Sep_25_1321	StressSession	03.01.2003	5.999.170.674.664.610
20	green	440	1.0						0	19	19	19																					mch	2	2019_Sep_25_1321	StressSession	03.01.2003	5.999.170.674.664.610
21	green	440	1.0						0	20	20	20																					mch	2	2019_Sep_25_1321	StressSession	03.01.2003	5.999.170.674.664.610
22	green	440	1.0						0	21	21	21																					mch	2	2019_Sep_25_1321	StressSession	03.01.2003	5.999.170.674.664.610
23	green	440	1.0						0	22	22	22																					mch	2	2019_Sep_25_1321	StressSession	03.01.2003	5.999.170.674.664.610
24	green	440	1.0						0	23	23	23																					mch	2	2019_Sep_25_1321	StressSession	03.01.2003	5.999.170.674.664.610
25	green	440	1.0						0	24	24	24																					mch	2	2019_Sep_25_1321	StressSession	03.01.2003	5.999.170.674.664.610
26	green	440	1.0						0	25	25	25																					mch	2	2019_Sep_25_1321	StressSession	03.01.2003	5.999.170.674.664.610
27	green	440	1.0						0	26	26	26																					mch	2	2019_Sep_25_1321	StressSession	03.01.2003	5.999.170.674.664.610
28	green	440	1.0						0	27	27	27																					mch	2	2019_Sep_25_1321	StressSession	03.01.2003	5.999.170.674.664.610
29	green	440	1.0						0	28	28	28																					mch	2	2019_Sep_25_1321	StressSession	03.01.2003	5.999.170.674.664.610
30	green	440	1.0						0	29	29	29																					mch	2	2019_Sep_25_1321	StressSession	03.01.2003	5.999.170.674.664.610
31	green	440	1.0						0	30	30	30																					mch	2	2019_Sep_25_1321	StressSession	03.01.2003	5.999.170.674.664.610
32	green	440	1.0						0	31	31	31																					mch	2	2019_Sep_25_1321	StressSession	03.01.2003	5.999.170.674.664.610
33	green	440	1.0						0	32	32	32																					mch	2	2019_Sep_25_1321	StressSession	03.01.2003	5.999.170.674.664.610
34	green	440	1.0						0	33	33	33																					mch	2	2019_Sep_25_1321	StressSession	03.01.2003	5.999.170.674.664.610
35	green	440	1.0						0	34	34	34																					mch	2	2019_Sep_25_1321	StressSession	03.01.2003	5.999.170.674.664.610
36	green	440	1.0						0	35	35	35																					mch	2	2019_Sep_25_1321	StressSession	03.01.2003	5.999.170.674.664.610
37	green	440	1.0						0	36	36	36																					mch	2	2019_Sep_25_1321	StressSession	03.01.2003	5.999.170.674.664.610
38	green	440	1.0						0	37	37	37																					mch	2	2019_Sep_25_1321	StressSession	03.01.2003	5.999.170.674.664.610
39	green	440	1.0						0	38	38	38																					mch	2	2019_Sep_25_1321	StressSession	03.01.2003	5.999.170.674.664.610
40	green	440	1.0						0	39	39	39																					mch	2	2019_Sep_25_1321	StressSession	03.01.2003	5.999.170.674.664.610
41	green	440	1.0						0	40	40	40																					mch	2	2019_Sep_25_1321	StressSession	03.01.2003	5.999.170.674.664.610
42	green	440	1.0						0	41	41	41																					mch	2	2019_Sep_25_1321	StressSession	03.01.2003	5.999.170.674.664.610
43	green	440	1.0						0	42	42	42																					mch	2	2019_Sep_25_1321	StressSession	03.01.2003	5.999.170.674.664.610
44	green	440	1.0						0	43	43	43																					mch	2	2019_Sep_25_1321	StressSession	03.01.2003	5.999.170.674.664.610
45	green	440	1.0						0	44	44	44																					mch	2	2019_Sep_25_1321	StressSession	03.01.2003	5.999.170.674.664.610
46	green	440	1.0						0	45	45	45																					mch	2	2019_Sep_25_1321	StressSession	03.01.2003	5.999.170.674.664.610
47	green	440	1.0						0	46	46	46																					mch	2	2019_Sep_25_1321	StressSession	03.01.2003	5.999.170.674.664.610
48	green	440	1.0						0	47	47	47																					mch	2	2019_Sep_25_1321	StressSession	03.01.2003	5.999.170.674.664.610
49	green	440	1.0						0	48	48	48																					mch	2	2019_Sep_25_1321	StressSession	03.01.2003	5.999.170.674.664.610
50	green	440	1.0						0	49	49	49																					mch	2	2019_Sep_25_1321	StressSession	03.01.2003	5.999.170.674.664.610
51	green	440	1.0						0	50	50	50																					mch	2	2019_Sep_25_1321	StressSession	03.01.2003	5.999.170.674.664.610
52	green	440	1.0						0	51	51	51																					mch	2	2019_Sep_25_1321	StressSession	03.01.2003	5.999.170.674.664.610
53	green	440	1.0						0	52	52	52																					mch	2	2019_Sep_25_1321	StressSession	03.01.2003	5.999.170.674.664.610
54	green	440	1.0						0	53	53	53																					mch	2	2019_Sep_25_1321	StressSession	03.01.2003	5.999.170.674.664.610
55	green	440	1.0						0	54	54	54																					mch	2	2019_Sep_25_1321	StressSession	03.01.2003	5.999.170.674.664.610
56	green	440	1.0						0	55	55	55																					mch	2	2019_Sep_25_1321	StressSession	03.01.2003	5.999.170.674.664.610
57	green	440	1.0						0	56	56	56																					mch	2	2019_Sep_25_1321	StressSession	03.01.2003	5.999.170.674.664.610
58	green	440	1.0						0	57	57	57																					mch	2	2019_Sep_25_1321	StressSession	03.01.2003	5.999.170.674.664.610
59	green	440	1.0						0	58	58	58																					mch	2	2019_Sep_25_1321	StressSession	03.01.2003	5.999.170.674.664.610
60	green	440	1.0						0	59	59	59																					mch	2	2019_Sep_25_1321	StressSession	03.01.2003	5.999.170.674.664.610
61	green	440	1.0						0	60	60	60																					mch	2	2019_Sep_25_1321	StressSession	03.01.2003	5.999.170.674.664.610
62	green	440	1.0						0	61	61	61																					mch	2	2019_Sep_25_1321	StressSession	03.01.2003	5.999.170.674.664.610
63	green	440	1.0						0	62	62	62																					mch	2	2019_Sep_25_1321	StressSession	03.01.2003	5.999.170.674.664.610
64	green	440	1.0						0	63	63	63																					mch	2	2019_Sep_25_1321	StressSession	03.01.2003	5.999.170.674.664.610
65	green	440	1.0						0	64	64	64																					mch	2	2019_Sep_25_1321	StressSession	03.01.2003	5.999.170.674.664.610
66	green	440	1.0						0	65	65	65																					mch	2	2019_Sep_25_1321	StressSession	03.01.2003	5.999.170.674.664.610
67	green	440	1.0						0	66	66	66																					mch	2	2019_Sep_25_1321	StressSession	03.01.2003	5.999.170.674.664.610
68	green	440	1.0						0	67	67	67																					mch	2	2019_Sep_25_1321	StressSession	03.01.2003	5.999.170.674.664.610
69	green	440	1.0						0	68	68	68																					mch	2	2019_Sep_25_1321	StressSession	03.01.2003	5.999.170.674.664.610
70	green	440	1.0						0	69	69	69																					mch	2	2019_Sep_25_1321	StressSession	03.01.2003	5.999.170.674.664.610
71	green	440	1.0						0	70	70	70																					mch	2	2019_Sep_25_1321	StressSession	03.01.2003	5.999.170.674.664.610
72	green	440	1.0						0	71	71	71																					mch	2	2019_Sep_25_1321	StressSession	03.01.2003	5.999.170.674.664.610
73	green	440	1.0						0	72	72	72																					mch	2	2019_Sep_25_1321	StressSession	03.01.2003	5.999.170.674.664.610
74	green	440	1.0						0	73	73	73																					mch	2	2019_Sep_25_1321	StressSession	03.01.2003	5.999.170.674.664.610
75	green	440	1.0						0	74	74	74																					mch	2	2019_Sep_25_1321	StressSession	03.01.2003	5.999.170.674.664.610
76	green	440	1.0						0	75	75	75																					mch	2	2019_Sep_25_1321	StressSession	03.01.2003	5.999.170.674.664.610
77	green	440	1.0						0	76	76	76																					mch	2	2019_Sep_25_1321	StressSession	03.01.2003	5.999.170.674.664.610
78	green	440	1.0						0	77	77	77																					mch	2	2019_Sep_25_1321	StressSession	03.01.2003	5.999.170.674.664.610
79	green	440	1.0						0	78	78	78																					mch	2	2019_Sep_25_1321	StressSession	03.01.2003	5.999.170.674.664.610
80	green	440	1.0						0	79	79	79																					mch	2	2019_Sep_25_1321	StressSession	03.01.2003	5.999.170.674.664.610
81	green	440	1.0						0	80	80	80																					mch	2	2019_Sep_25_1321	StressSession	03.01.2003	5.999.170.674.664.610
82	green	440	1.0						0	81	81	81																					mch	2	2019_Sep_25_1321	StressSession	03.01.2003	5.999.170.674.664.610
83	green	440	1.0						0	82	82	82																					mch	2	2019_Sep_25_1321	StressSession	03.01.2003	5.999.170.674.664.610
84	green	440	1.0						0	83	83	83																					mch	2	2019_Sep_25_1321	StressSession	03.01.2003	5.999.170.674.664.610
85	green	440	1.0						0	84	84	84																					mch	2	2019_Sep_25_1321	StressSession	03.01.2003	5.999.170.674.664.610
86	green	440	1.0						0	85	85	85																					mch	2	2019_Sep_25_1321	StressSession	03.01.2003	5.999.170.674.664.610
87	green	440	1.0						0	86	86	86																					mch	2	2019_Sep_25_1321	StressSession	03.01.2003	5.999.170.674.664.610
88	green	440	1.0						0	87	87	87																					mch	2	2019_Sep_25_1321	StressSession	03.01.2003	5.999.170.674.664.610
89	green	440	1.0						0	88	88	88																					mch	2	2019_Sep_25_1321	StressSession	03.01.2003	5.999.170.674.664.610
90	green	440	1.0						0	89	89	89																					mch	2	2019_Sep_25_1321	StressSession	03.01.2003	5.999.170.674.664.610
91	green	440	1.0						0	90	90	90																					mch	2	2019_Sep_25_1321	StressSession	03.01.2003	5.999.170.674.664.610
92	green	440	1.0						0	91	91	91																					mch	2	2019_Sep_25_1321	StressSession	03.01.2003	5.999.170.674.664.610
93	green	440	1.0						0	92	92	92																					mch	2	2019_Sep_25_1321	StressSession	03.01.2003	5.999.170.674.664.610
94	green	440	1.0						0	93	93	93																					mch	2	2019_Sep_25_1321	StressSession	03.01.2003	5.999.170.674.664.610
95	green	440	1.0						0	94	94	94																					mch	2	2019_Sep_25_1321	StressSession	03.01.2003	5.999.170.674.664.610
96	green	440	1.0						0	95	95	95																					mch	2	2019_Sep_25_1321	StressSession	03.01.2003	5.999.170.674.664.610
97	green	440	1.0						0	96	96	96																					mch	2	2019_Sep_25_1321	StressSession	03.01.2003	5.999.170.674.664.610
98	green	440	1.0						0	97	97	97																					mch	2	2019_Sep_25_1321	StressSession	03.01.2003	5.999.170.674.664.610
99	green	440	1.0						0	98	98	98																					mch	2	2019_Sep_25_1321	StressSession	03.01.2003	5.999.170.674.664.610
100	green	440	1.0						0	99	99	99																					mch	2	2019_Sep_25_1321	StressSession	03.01.2003	5.999.170.674.664.610
101	green	440	1.0						0	100	100	100																					mch	2	2019_Sep_25_1321	StressSession	03.01.2003	5.999.170.674.664.610
102	green	440	1.0						0	101	101	101																					mch	2	2019_Sep_25_1321	StressSession	03.01.2003	5.999.170.674.664.610
103	green	440	1.0						0	102	102	102																					mch	2	2019_Sep_25_1321	StressSession	03.01.2003	5.999.170.674.664.610
104	green	440	1.0						0	103	103	103																					mch	2	2019_Sep_25_1321	StressSession	03.01.2003	5.999.170.674.664.610
105	green	440	1.0						0	104	104	104																					mch	2	2019_Sep_25_1321	StressSession	03.01.2003	5.999.170.674.664.610
106	green	440	1.0						0	105	105	105																					mch	2	2019_Sep_25_1321	StressSession	03.01.2003	5.999.170.674.664.610
107	green	440	1.0						0	106	106	106																					mch	2	2019_Sep_25_1321	StressSession	03.01.2003	5.999.170.674.664.610
108	green	440	1.0						0	107	107	107																					mch	2	2019_Sep_25_1321	StressSession	03.01.2003	5.999.170.674.664.610
109	green	440	1.0						0	108	108	108																					mch	2	2019_Sep_25_1321	StressSession	03.01.2003	5.999.170.674.664.610
110	green	440	1.0						0	109	109	109																					mch	2	2019_Sep_25_1321	StressSession	03.01.2003	5.999.170.674.664.610
111	green	440	1.0						0	110	110	110																					mch	2	2019_Sep_25_1321	StressSession	03.01.2003	5.999.170.674.664.610
112	green	440	1.0						0	111	111	111																					mch	2	2019_Sep_25_1321	StressSession	03.01.2003	5.999.170.674.664.610
113	green	440	1.0						0	112	112	112																					mch	2	2019_Sep_25_1321	StressSession	03.01.2003	5.999.170.674.664.610
114	green	440	1.0						0	113	113	113																					mch	2	2019_Sep_25_1321	StressSession	03.01.2003	5.999.170.674.664.610
115	green	440	1.0						0	114	114	114																					mch	2	2019_Sep_25_1321	StressSession	03.01.2003	5.999.170.674.664.610
116	green	440	1.0						0	115	115	115																					mch	2	2019_Sep_25_1321	StressSession	03.01.2003	5.999.170.674.664.610
117	green	440	1.0						0	116	116	116																					mch	2	2019_Sep_25_1321	StressSession	03.01.2003	5.999.170.674.664.610
118	green	440	1.0						0	117	117	117																					mch	2	2019_Sep_25_1321	StressSession	03.01.2003	5.999.170.674.664.610
119	green	440	1.0						0	118	118	118																					mch	2	2019_Sep_25_1321	StressSession	03.01.2003	5.999.170.674.664.610
120	green	440	1.0						0	119	119	119																					mch	2	2019_Sep_25_1321	StressSession	03.01.2003	5.999.170.674.664.610
121	green	440	1.0						0	120	120	120																					mch	2	2019_Sep_25_1321	StressSession	03.01.2003	5.999.170.674.664.610
122	green	440	1.0						0	121	121	121																					mch	2	2019_Sep_25_1321	StressSession	03.01.2003	5.999.170.674.664.610
123	green	440	1.0						0	122	122	122																					mch	2	2019_Sep_25_1321	StressSession	03.01.2003	5.999.170.674.664.610
124	green	440	1.0						0	123	123	123																					mch	2	2019_Sep_25_1321	StressSession	03.01.2003	5.999.170.674.664.610
125	green	440	1.0						0	124	124	124																					mch	2	2019_Sep_25_1321	StressSession	03.01.2003	5.999.170.674.664.610
126	green	440	1.0						0	125	125	125																					mch	2	2019_Sep_25_1321	StressSession	03.01.2003	5.999.170.674.664.610
127	green	440	1.0						0	126	126	126																					mch	2	2019_Sep_25_1321	StressSession	03.01.2003	5.999.170.674.664.610
128	green	440	1.0						0	127	127	127																					mch	2	2019_Sep_25_1321	StressSession	03.01.2003	5.999.170.674.664.610
129	green	440	1.0						0	128	128	128																					mch	2	2019_Sep_25_1321	StressSession	03.01.2003	5.999.170.674.664.610
130	green	440	1.0						0	129	129	129																					mch	2	2019_Sep_25_1321	StressSession	03.01.2003	5.999.170.674.664.610
131	green	440	1.0						0	130	130	130																					mch	2	2019_Sep_25_1321	StressSession	03.01.2003	5.999.170.674.664.610
132	green	440	1.0						0	131	131	131																					mch	2	2019_Sep_25_1321	StressSession	03.01.2003	5.999.170.674.664.610
133	green	440	1.0						0	132	132	132																					mch	2	2019_Sep_25_1321	StressSession	03.01.2003	5.999.170.674.664.610
134	green	440	1.0						0	133	133	133																					mch	2	2019_Sep_25_1321	StressSession	03.01.2003	5.999.170.674.664.610
135	green	440	1.0						0	134	134	134																					mch	2	2019_Sep_25_1321	StressSession	03.01.2003	5.999.170.674.664.610
136	green	440	1.0						0	135	135	135																					mch	2	2019_Sep_25_1321	StressSession	03.01.2003	5.999.170.674.664.610
137	green	440	1.0						0	136	136	136																					mch	2	2019_Sep_25_1321	StressSession	03.01.2003	5.999.170.674.664.610
138	green	440	1.0						0	137	137	137																					mch	2	2019_Sep_25_1321	StressSession	03.01.2003	5.999.170.674.664.610
139	green	440	1.0						0	138	138	138																					mch	2	2019_Sep_25_1321	StressSession	03.01.2003	5.999.170.674.664.610
140	green	440	1.0						0	139	139	139																					mch	2	2019_Sep_25_1321	StressSession	03.01.2003	5.999.170.674.664.610
141	green	440	1.0						0	140	140	140																					mch	2	2019_Sep_25_1321	StressSession	03.01.2003	5.999.170.674.664.610
142	green	440	1.0						0	141	141	141																					mch	2	2019_Sep_25_1321	StressSession	03.01.2003	5.999.170.674.664.610
143	green	440	1.0						0	142	142	142																					mch	2	2019_Sep_25_1321	StressSession	03.01.2003	5.999.170.674.664.610
144	green	440	1.0						0	143	143	143																					mch	2	2019_Sep_25_1321	StressSession	03.01.2003	5.999.170.674.664.610
145	green	440	1.0						0	144	144	144																					mch	2	2019_Sep_25_1321	StressSession	03.01.2003	5.999.170.674.664.610
146	green	440	1.0						0	145	145	145																					mch	2	2019_Sep_25_1321	StressSession	03.01.2003	5.999.170.674.664.610
147	green	440	1.0						0	146	146	146																					mch	2	2019_Sep_25_1321	StressSession	03.01.2003	5.999.170.674.664.610
148	green	440	1.0						0	147	147	147																					mch	2	2019_Sep_25_1321	StressSession	03.01.2003	5.999.170.674.664.610
149	green	440	1.0						0	148	148	148																					mch	2	2019_Sep_25_1321	StressSession	03.01.2003	5.999.170.674.664.610
150	green	440	1.0						0	149	149	149																					mch	2	2019_Sep_25_1321	StressSession	03.01.2003	5.999.170.674.664.610
151	green	440	1.0						0	150	150	150																					mch	2	2019_Sep_25_1321	StressSession	03.01.2003	5.999.170.674.664.610
152	green	440	1.0						0	151	151	151																					mch	2	2019_Sep_25_1321	StressSession	03.01.2003	5.999.170.674.664.610
153	green	440	1.0						0	152	152	152																					mch	2	2019_Sep_25_1321	StressSession	03.01.2003	5.999.170.674.664.610
154	green	440	1.0						0	153	153	153																					mch	2	2019_Sep_25_1321	StressSession	03.01.2003	5.999.170.674.664.610
155	green	440	1.0						0	154	154	154																					mch	2	2019_Sep_25_1321	StressSession	03.01.2003	5.999.170.674.664.610
156	green	440	1.0						0	155	155	155																					mch	2	2019_Sep_25_1321	StressSession	03.01.2003	5.999.170.674.664.610
157	green	440	1.0						0	156	156	156																					mch	2	2019_Sep_25_1321	StressSession	03.01.2003	5.999.170.674.664.610
158	green	440	1.0						0	157	157	157																					mch	2	2019_Sep_25_1321	StressSession	03.01.2003	5.999.170.674.664.610
159	green	440	1.0						0	158	158	158																					mch	2	2019_Sep_25_1321	StressSession	03.01.2003	5.999.170.674.664.610
160	green	440	1.0						0	159	159	159																					mch	2	2019_Sep_25_1321	StressSession	03.01.2003	5.999.170.674.664.610
161	green	440	1.0						0	160	160	160																					mch	2	2019_Sep_25_1321	StressSession	03.01.2003	5.999.170.674.664.610
162	green	440	1.0						0	161	161	161																					mch	2	2019_Sep_25_1321	StressSession	03.01.2003	5.999.170.674.664.610
163	green	440	1.0						0	162	162	162																					mch	2	2019_Sep_25_1321	StressSession	03.01.2003	5.999.170.674.664.610
164	green	440	1.0						0	163	163	163																					mch	2	2019_Sep_25_1321	StressSession	03.01.2003	5.999.170.674.664.610
165	green	440	1.0						0	164	164	164																					mch	2	2019_Sep_25_1321	StressSession	03.01.2003	5.999.170.674.664.610
166	green	440	1.0						0	165	165	165																					mch	2	2019_Sep_25_1321	StressSession	03.01.2003	5.999.170.674.664.610
167	green	440	1.0						0	166	166	166																					mch	2	2019_Sep_25_1321	StressSession	03.01.2003	5.999.170.674.664.610
168	green	440	1.0						0	167	167	167																					mch	2	2019_Sep_25_1321	StressSession	03.01.2003	5.999.170.674.664.610
169	green	440	1.0						0	168	168	168																					mch	2	2019_Sep_25_1321	StressSession	03.01.2003	5.999.170.674.664.610
170	green	440	1.0						0	169	169	169																					mch	2	2019_Sep_25_1321	StressSession	03.01.2003	5.999.170.674.664.610
171	green	440	1.0						0	170	170	170																					mch	2	2019_Sep_25_1321	StressSession	03.01.2003	5.999.170.674.664.610
172	green	440	1.0						0	171	171	171																					mch	2	2019_Sep_25_1321	StressSession	03.01.2003	5.999.170.674.664.610
173	green	440	1.0						0	172	172	172																					mch	2	2019_Sep_25_1321	StressSession	03.01.2003	5.999.170.674.664.610
174	green	440	1.0						0	173	173	173																					mch	2	2019_Sep_25_1321	StressSession	03.01.2003	5.999.170.674.664.610
175	green	440	1.0						0	174	174	174																					mch	2	2019_Sep_25_1321	StressSession	03.01.2003	5.999.170.674.664.610
176	green	440	1.0						0	175	175	175																					mch	2	2019_Sep_25_1321	StressSession	03.01.2003	5.999.170.674.664.610
177	green	440	1.0						0	176	176	176																					mch	2	2019_Sep_25_1321	StressSession	03.01.2003	5.999.170.674.664.610
178	green	440	1.0						0	177	177	177																					mch	2	2019_Sep_25_1321	StressSession	03.01.2003	5.999.170.674.664.610
179	green	440	1.0						0	178	178	178																					mch	2	2019_Sep_25_1321	StressSession	03.01.2003	5.999.170.674.664.610
180	yellow	880	0.5						0	179	179	179																					mch	2	2019_Sep_25_1321	StressSession	03.01.2003	5.999.170.674.664.610
181	yellow	880	0.5						0	180	180	180																					mch	2	2019_Sep_25_1321	StressSession	03.01.2003	5.999.170.674.664.610
182	yellow	880	0.5						0	181	181	181																					mch	2	2019_Sep_25_1321	StressSession	03.01.2003	5.999.170.674.664.610
183	yellow	880	0.5						0	182	182	182																					mch	2	2019_Sep_25_1321	StressSession	03.01.2003	5.999.170.674.664.610
184	yellow	880	0.5						0	183	183	183																					mch	2	2019_Sep_25_1321	StressSession	03.01.2003	5.999.170.674.664.610
185	yellow	880	0.5						0	184	184	184																					mch	2	2019_Sep_25_1321	StressSession	03.01.2003	5.999.170.674.664.610
186	yellow	880	0.5						0	185	185	185																					mch	2	2019_Sep_25_1321	StressSession	03.01.2003	5.999.170.674.664.610
187	yellow	880	0.5						0	186	186	186																					mch	2	2019_Sep_25_1321	StressSession	03.01.2003	5.999.170.674.664.610
188	yellow	880	0.5						0	187	187	187																					mch	2	2019_Sep_25_1321	StressSession	03.01.2003	5.999.170.674.664.610
189	yellow	880	0.5						0	188	188	188																					mch	2	2019_Sep_25_1321	StressSession	03.01.2003	5.999.170.674.664.610
190	yellow	880	0.5						0	189	189	189																					mch	2	2019_Sep_25_1321	StressSession	03.01.2003	5.999.170.674.664.610
191	yellow	880	0.5						0	190	190	190																					mch	2	2019_Sep_25_1321	StressSession	03.01.2003	5.999.170.674.664.610
192	yellow	880	0.5						0	191	191	191																					mch	2	2019_Sep_25_1321	StressSession	03.01.2003	5.999.170.674.664.610
193	yellow	880	0.5						0	192	192	192																					mch	2	2019_Sep_25_1321	StressSession	03.01.2003	5.999.170.674.664.610
194	yellow	880	0.5						0	193	193	193																					mch	2	2019_Sep_25_1321	StressSession	03.01.2003	5.999.170.674.664.610
195	yellow	880	0.5						0	194	194	194																					mch	2	2019_Sep_25_1321	StressSession	03.01.2003	5.999.170.674.664.610
196	yellow	880	0.5						0	195	195	195																					mch	2	2019_Sep_25_1321	StressSession	03.01.2003	5.999.170.674.664.610
197	yellow	880	0.5						0	196	196	196																					mch	2	2019_Sep_25_1321	StressSession	03.01.2003	5.999.170.674.664.610
198	yellow	880	0.5						0	197	197	197																					mch	2	2019_Sep_25_1321	StressSession	03.01.2003	5.999.170.674.664.610
199	yellow	880	0.5						0	198	198	198																					mch	2	2019_Sep_25_1321	StressSession	03.01.2003	5.999.170.674.664.610
200	yellow	880	0.5						0	199	199	199																					mch	2	2019_Sep_25_1321	StressSession	03.01.2003	5.999.170.674.664.610
201	yellow	880	0.5						0	200	200	200																					mch	2	2019_Sep_25_1321	StressSession	03.01.2003	5.999.170.674.664.610
202	yellow	880	0.5						0	201	201	201																					mch	2	2019_Sep_25_1321	StressSession	03.01.2003	5.999.170.674.664.610
203	yellow	880	0.5						0	202	202	202																					mch	2	2019_Sep_25_1321	StressSession	03.01.2003	5.999.170.674.664.610
204	yellow	880	0.5						0	203	203	203																					mch	2	2019_Sep_25_1321	StressSession	03.01.2003	5.999.170.674.664.610
205	yellow	880	0.5						0	204	204	204																					mch	2	2019_Sep_25_1321	StressSession	03.01.2003	5.999.170.674.664.610
206	yellow	880	0.5						0	205	205	205																					mch	2	2019_Sep_25_1321	StressSession	03.01.2003	5.999.170.674.664.610
207	yellow	880	0.5						0	206	206	206																					mch	2	2019_Sep_25_1321	StressSession	03.01.2003	5.999.170.674.664.610
208	yellow	880	0.5						0	207	207	207																					mch	2	2019_Sep_25_1321	StressSession	03.01.2003	5.999.170.674.664.610
209	yellow	880	0.5						0	208	208	208																					mch	2	2019_Sep_25_1321	StressSession	03.01.2003	5.999.170.674.664.610
210	yellow	880	0.5						0	209	209	209																					mch	2	2019_Sep_25_1321	StressSession	03.01.2003	5.999.170.674.664.610
211	yellow	880	0.5						0	210	210	210																					mch	2	2019_Sep_25_1321	StressSession	03.01.2003	5.999.170.674.664.610
212	yellow	880	0.5						0	211	211	211																					mch	2	2019_Sep_25_1321	StressSession	03.01.2003	5.999.170.674.664.610
213	yellow	880	0.5						0	212	212	212																					mch	2	2019_Sep_25_1321	StressSession	03.01.2003	5.999.170.674.664.610
214	yellow	880	0.5						0	213	213	213																					mch	2	2019_Sep_25_1321	StressSession	03.01.2003	5.999.170.674.664.610
215	yellow	880	0.5						0	214	214	214																					mch	2	2019_Sep_25_1321	StressSession	03.01.2003	5.999.170.674.664.610
216	yellow	880	0.5						0	215	215	215																					mch	2	2019_Sep_25_1321	StressSession	03.01.2003	5.999.170.674.664.610
217	yellow	880	0.5						0	216	216	216																					mch	2	2019_Sep_25_1321	StressSession	03.01.2003	5.999.170.674.664.610
218	yellow	880	0.5						0	217	217	217																					mch	2	2019_Sep_25_1321	StressSession	03.01.2003	5.999.170.674.664.610
219	yellow	880	0.5						0	218	218	218																					mch	2	2019_Sep_25_1321	StressSession	03.01.2003	5.999.170.674.664.610
220	yellow	880	0.5						0	219	219	219																					mch	2	2019_Sep_25_1321	StressSession	03.01.2003	5.999.170.674.664.610
221	yellow	880	0.5						0	220	220	220																					mch	2	2019_Sep_25_1321	StressSession	03.01.2003	5.999.170.674.664.610
222	yellow	880	0.5						0	221	221	221																					mch	2	2019_Sep_25_1321	StressSession	03.01.2003	5.999.170.674.664.610
223	yellow	880	0.5						0	222	222	222																					mch	2	2019_Sep_25_1321	StressSession	03.01.2003	5.999.170.674.664.610
224	yellow	880	0.5						0	223	223	223																					mch	2	2019_Sep_25_1321	StressSession	03.01.2003	5.999.170.674.664.610
225	yellow	880	0.5						0	224	224	224																					mch	2	2019_Sep_25_1321	StressSession	03.01.2003	5.999.170.674.664.610
226	yellow	880	0.5						0	225	225	225																					mch	2	2019_Sep_25_1321	StressSession	03.01.2003	5.999.170.674.664.610
227	yellow	880	0.5						0	226	226	226																					mch	2	2019_Sep_25_1321	StressSession	03.01.2003	5.999.170.674.664.610
228	yellow	880	0.5						0	227	227	227																					mch	2	2019_Sep_25_1321	StressSession	03.01.2003	5.999.170.674.664.610
229	yellow	880	0.5						0	228	228	228																					mch	2	2019_Sep_25_1321	StressSession	03.01.2003	5.999.170.674.664.610
230	yellow	880	0.5						0	229	229	229																					mch	2	2019_Sep_25_1321	StressSession	03.01.2003	5.999.170.674.664.610
231	yellow	880	0.5						0	230	230	230																					mch	2	2019_Sep_25_1321	StressSession	03.01.2003	5.999.170.674.664.610
232	yellow	880	0.5						0	231	231	231																					mch	2	2019_Sep_25_1321	StressSession	03.01.2003	5.999.170.674.664.610
233	yellow	880	0.5						0	232	232	232																					mch	2	2019_Sep_25_1321	StressSession	03.01.2003	5.999.170.674.664.610
234	yellow	880	0.5						0	233	233	233																					mch	2	2019_Sep_25_1321	StressSession	03.01.2003	5.999.170.674.664.610
235	yellow	880	0.5						0	234	234	234																					mch	2	2019_Sep_25_1321	StressSession	03.01.2003	5.999.170.674.664.610
236	yellow	880	0.5						0	235	235	235																					mch	2	2019_Sep_25_1321	StressSession	03.01.2003	5.999.170.674.664.610
237	yellow	880	0.5						0	236	236	236																					mch	2	2019_Sep_25_1321	StressSession	03.01.2003	5.999.170.674.664.610
238	yellow	880	0.5						0	237	237	237																					mch	2	2019_Sep_25_1321	StressSession	03.01.2003	5.999.170.674.664.610
239	yellow	880	0.5						0	238	238	238																					mch	2	2019_Sep_25_1321	StressSession	03.01.2003	5.999.170.674.664.610
240	red	1760	0.5						0	239	239	239																					mch	2	2019_Sep_25_1321	StressSession	03.01.2003	5.999.170.674.664.610
241	red	1760	0.5						0	240	240	240																					mch	2	2019_Sep_25_1321	StressSession	03.01.2003	5.999.170.674.664.610
242	red	1760	0.5						0	241	241	241																					mch	2	2019_Sep_25_1321	StressSession	03.01.2003	5.999.170.674.664.610
243	red	1760	0.5						0	242	242	242																					mch	2	2019_Sep_25_1321	StressSession	03.01.2003	5.999.170.674.664.610
244	red	1760	0.5						0	243	243	243																					mch	2	2019_Sep_25_1321	StressSession	03.01.2003	5.999.170.674.664.610
245	red	1760	0.5						0	244	244	244																					mch	2	2019_Sep_25_1321	StressSession	03.01.2003	5.999.170.674.664.610
246	red	1760	0.5						0	245	245	245																					mch	2	2019_Sep_25_1321	StressSession	03.01.2003	5.999.170.674.664.610
247	red	1760	0.5						0	246	246	246																					mch	2	2019_Sep_25_1321	StressSession	03.01.2003	5.999.170.674.664.610
248	red	1760	0.5						0	247	247	247																					mch	2	2019_Sep_25_1321	StressSession	03.01.2003	5.999.170.674.664.610
249	red	1760	0.5						0	248	248	248																					mch	2	2019_Sep_25_1321	StressSession	03.01.2003	5.999.170.674.664.610
250	red	1760	0.5						0	249	249	249																					mch	2	2019_Sep_25_1321	StressSession	03.01.2003	5.999.170.674.664.610
251	red	1760	0.5						0	250	250	250																					mch	2	2019_Sep_25_1321	StressSession	03.01.2003	5.999.170.674.664.610
252	red	1760	0.5						0	251	251	251																					mch	2	2019_Sep_25_1321	StressSession	03.01.2003	5.999.170.674.664.610
253	red	1760	0.5						0	252	252	252																					mch	2	2019_Sep_25_1321	StressSession	03.01.2003	5.999.170.674.664.610
254	red	1760	0.5						0	253	253	253																					mch	2	2019_Sep_25_1321	StressSession	03.01.2003	5.999.170.674.664.610
255	red	1760	0.5						0	254	254	254																					mch	2	2019_Sep_25_1321	StressSession	03.01.2003	5.999.170.674.664.610
256	red	1760	0.5						0	255	255	255																					mch	2	2019_Sep_25_1321	StressSession	03.01.2003	5.999.170.674.664.610
257	red	1760	0.5						0	256	256	256																					mch	2	2019_Sep_25_1321	StressSession	03.01.2003	5.999.170.674.664.610
258	red	1760	0.5						0	257	257	257																					mch	2	2019_Sep_25_1321	StressSession	03.01.2003	5.999.170.674.664.610
259	red	1760	0.5						0	258	258	258																					mch	2	2019_Sep_25_1321	StressSession	03.01.2003	5.999.170.674.664.610
260	red	1760	0.5						0	259	259	259																					mch	2	2019_Sep_25_1321	StressSession	03.01.2003	5.999.170.674.664.610
261	red	1760	0.5						0	260	260	260																					mch	2	2019_Sep_25_1321	StressSession	03.01.2003	5.999.170.674.664.610
262	red	1760	0.5						0	261	261	261																					mch	2	2019_Sep_25_1321	StressSession	03.01.2003	5.999.170.674.664.610
263	red	1760	0.5						0	262	262	262																					mch	2	2019_Sep_25_1321	StressSession	03.01.2003	5.999.170.674.664.610
264	red	1760	0.5						0	263	263	263																					mch	2	2019_Sep_25_1321	StressSession	03.01.2003	5.999.170.674.664.610
265	red	1760	0.5						0	264	264	264																					mch	2	2019_Sep_25_1321	StressSession	03.01.2003	5.999.170.674.664.610
266	red	1760	0.5						0	265	265	265																					mch	2	2019_Sep_25_1321	StressSession	03.01.2003	5.999.170.674.664.610
267	red	1760	0.5						0	266	266	266																					mch	2	2019_Sep_25_1321	StressSession	03.01.2003	5.999.170.674.664.610
268	red	1760	0.5						0	267	267	267																					mch	2	2019_Sep_25_1321	StressSession	03.01.2003	5.999.170.674.664.610
269	red	1760	0.5						0	268	268	268																					mch	2	2019_Sep_25_1321	StressSession	03.01.2003	5.999.170.674.664.610
270	red	1760	0.5						0	269	269	269																					mch	2	2019_Sep_25_1321	StressSession	03.01.2003	5.999.170.674.664.610
271	red	1760	0.5						0	270	270	270																					mch	2	2019_Sep_25_1321	StressSession	03.01.2003	5.999.170.674.664.610
272	red	1760	0.5						0	271	271	271																					mch	2	2019_Sep_25_1321	StressSession	03.01.2003	5.999.170.674.664.610
273	red	1760	0.5						0	272	272	272																					mch	2	2019_Sep_25_1321	StressSession	03.01.2003	5.999.170.674.664.610
274	red	1760	0.5						0	273	273	273																					mch	2	2019_Sep_25_1321	StressSession	03.01.2003	5.999.170.674.664.610
275	red	1760	0.5						0	274	274	274																					mch	2	2019_Sep_25_1321	StressSession	03.01.2003	5.999.170.674.664.610
276	red	1760	0.5						0	275	275	275																					mch	2	2019_Sep_25_1321	StressSession	03.01.2003	5.999.170.674.664.610
277	red	1760	0.5						0	276	276	276																					mch	2	2019_Sep_25_1321	StressSession	03.01.2003	5.999.170.674.664.610
278	red	1760	0.5						0	277	277	277																					mch	2	2019_Sep_25_1321	StressSession	03.01.2003	5.999.170.674.664.610
279	red	1760	0.5						0	278	278	278																					mch	2	2019_Sep_25_1321	StressSession	03.01.2003	5.999.170.674.664.610
280	red	1760	0.5						0	279	279	279																					mch	2	2019_Sep_25_1321	StressSession	03.01.2003	5.999.170.674.664.610
281	red	1760	0.5						0	280	280	280																					mch	2	2019_Sep_25_1321	StressSession	03.01.2003	5.999.170.674.664.610
282	red	1760	0.5						0	281	281	281																					mch	2	2019_Sep_25_1321	StressSession	03.01.2003	5.999.170.674.664.610
283	red	1760	0.5						0	282	282	282																					mch	2	2019_Sep_25_1321	StressSession	03.01.2003	5.999.170.674.664.610
284	red	1760	0.5						0	283	283	283																					mch	2	2019_Sep_25_1321	StressSession	03.01.2003	5.999.170.674.664.610
285	red	1760	0.5						0	284	284	284																					mch	2	2019_Sep_25_1321	StressSession	03.01.2003	5.999.170.674.664.610
286	red	1760	0.5						0	285	285	285																					mch	2	2019_Sep_25_1321	StressSession	03.01.2003	5.999.170.674.664.610
287	red	1760	0.5						0	286	286	286																					mch	2	2019_Sep_25_1321	StressSession	03.01.2003	5.999.170.674.664.610
288	red	1760	0.5						0	287	287	287																					mch	2	2019_Sep_25_1321	StressSession	03.01.2003	5.999.170.674.664.610
289	red	1760	0.5						0	288	288	288																					mch	2	2019_Sep_25_1321	StressSession	03.01.2003	5.999.170.674.664.610
290	red	1760	0.5						0	289	289	289																					mch	2	2019_Sep_25_1321	StressSession	03.01.2003	5.999.170.674.664.610
291	red	1760	0.5						0	290	290	290																					mch	2	2019_Sep_25_1321	StressSession	03.01.2003	5.999.170.674.664.610
292	red	1760	0.5						0	291	291	291																					mch	2	2019_Sep_25_1321	StressSession	03.01.2003	5.999.170.674.664.610
293	red	1760	0.5						0	292	292	292																					mch	2	2019_Sep_25_1321	StressSession	03.01.2003	5.999.170.674.664.610
294	red	1760	0.5						0	293	293	293																					mch	2	2019_Sep_25_1321	StressSession	03.01.2003	5.999.170.674.664.610
295	red	1760	0.5						0	294	294	294																					mch	2	2019_Sep_25_1321	StressSession	03.01.2003	5.999.170.674.664.610
296	red	1760	0.5						0	295	295	295																					mch	2	2019_Sep_25_1321	StressSession	03.01.2003	5.999.170.674.664.610
297	red	1760	0.5						0	296	296	296																					mch	2	2019_Sep_25_1321	StressSession	03.01.2003	5.999.170.674.664.610
298	red	1760	0.5						0	297	297	297																					mch	2	2019_Sep_25_1321	StressSession	03.01.2003	5.999.170.674.664.610
299	red	1760	0.5						0	298	298	298																					mch	2	2019_Sep_25_1321	StressSession	03.01.2003	5.999.170.674.664.610
300	red	1760	0.5						0	299	299	299																					mch	2	2019_Sep_25_1321	StressSession	03.01.2003	5.999.170.674.664.610
																			2019-09-25_13:29:23	10	11.675												mch	2	2019_Sep_25_1321	StressSession	03.01.2003	5.999.170.674.664.610
																						5	11.622										mch	2	2019_Sep_25_1321	StressSession	03.01.2003	5.999.170.674.664.610
				orange	black	black	orange	left					0	0	0	173								2019-09-25_13:31:40	left	1.227.712.853.333.280	626.475.909.546.667	None					mch	2	2019_Sep_25_1321	StressSession	03.01.2003	5.999.170.674.664.610
				purple	orange	orange	purple	left					0	1	1	189									left	14.296.486.399.998.600	628.250.280.960.001	None					mch	2	2019_Sep_25_1321	StressSession	03.01.2003	5.999.170.674.664.610
				green	brown	brown	green	left					0	2	2	135									left	18.373.858.133.345.400	6.302.104.217.600.000	None					mch	2	2019_Sep_25_1321	StressSession	03.01.2003	5.999.170.674.664.610
				cyan	orange	orange	cyan	left					0	3	3	151									left	16.252.650.666.665.400	6.325.987.515.733.340	None					mch	2	2019_Sep_25_1321	StressSession	03.01.2003	5.999.170.674.664.610
				brown	blue	blue	brown	left					0	4	4	193									left	10.709.623.466.664.100	6.347.608.064.000.010	None					mch	2	2019_Sep_25_1321	StressSession	03.01.2003	5.999.170.674.664.610
				blue	magenta	magenta	blue	left					0	5	5	121									left	1.136.927.999.999.890	6.363.746.658.133.330	None					mch	2	2019_Sep_25_1321	StressSession	03.01.2003	5.999.170.674.664.610
				cyan	black	cyan	black	right					0	6	6	45									right	11.558.079.999.995.200	6.380.519.278.933.330	None					mch	2	2019_Sep_25_1321	StressSession	03.01.2003	5.999.170.674.664.610
				cyan	brown	cyan	brown	right					0	7	7	43									right	12.041.510.400.013.000	6.397.394.880.000.010	None					mch	2	2019_Sep_25_1321	StressSession	03.01.2003	5.999.170.674.664.610
				magenta	white	magenta	white	right					0	8	8	35									right	1.162.400.853.334.470	641.493.383.680.001	None					mch	2	2019_Sep_25_1321	StressSession	03.01.2003	5.999.170.674.664.610
				brown	orange	orange	brown	left					0	9	9	198									left	0.9035037866669882	6.432.002.261.333.340	None					mch	2	2019_Sep_25_1321	StressSession	03.01.2003	5.999.170.674.664.610
				red	magenta	red	magenta	right					0	10	10	2									right	0.9619882666665944	6.446.456.541.866.660	None					mch	2	2019_Sep_25_1321	StressSession	03.01.2003	5.999.170.674.664.610
				orange	yellow	yellow	orange	left					0	11	11	179									right	0.9867093333341472	6.461.488.725.333.340	None					mch	2	2019_Sep_25_1321	StressSession	03.01.2003	5.999.170.674.664.610
				red	orange	red	orange	right					0	12	12	5									right	1.227.461.973.334.350	6.476.686.907.733.340	None					mch	2	2019_Sep_25_1321	StressSession	03.01.2003	5.999.170.674.664.610
				black	blue	black	blue	right					0	13	13	101									right	16.010.368.000.006.500	6.494.306.769.066.670	None					mch	2	2019_Sep_25_1321	StressSession	03.01.2003	5.999.170.674.664.610
				yellow	cyan	yellow	cyan	right					0	14	14	59									right	10.712.938.666.656.500	6.515.765.900.799.990	None					mch	2	2019_Sep_25_1321	StressSession	03.01.2003	5.999.170.674.664.610
				purple	orange	purple	orange	right					0	15	15	79									right	17.419.750.400.003.900	6.531.941.009.066.660	None					mch	2	2019_Sep_25_1321	StressSession	03.01.2003	5.999.170.674.664.610
				magenta	cyan	magenta	cyan	right					0	16	16	30									right	11.475.532.799.995.500	6.554.764.910.933.330	None					mch	2	2019_Sep_25_1321	StressSession	03.01.2003	5.999.170.674.664.610
				magenta	orange	orange	magenta	left					0	17	17	142									left	0.9681169066661823	657.151.494.400.001	None					mch	2	2019_Sep_25_1321	StressSession	03.01.2003	5.999.170.674.664.610
				purple	yellow	yellow	purple	left					0	18	18	188									left	18.162.342.399.991.700	6.586.555.686.400.000	None					mch	2	2019_Sep_25_1321	StressSession	03.01.2003	5.999.170.674.664.610
				cyan	green	green	cyan	left					0	19	19	158									left	0.8885610666657158	6.609.990.165.333.340	None					mch	2	2019_Sep_25_1321	StressSession	03.01.2003	5.999.170.674.664.610
				yellow	orange	yellow	orange	right					0	20	20	50									right	0.7963383466667437	6.624.193.561.600.000	None					mch	2	2019_Sep_25_1321	StressSession	03.01.2003	5.999.170.674.664.610
				yellow	magenta	yellow	magenta	right					0	21	21	58									right	11.413.623.466.669.300	6.637.387.281.066.670	None					mch	2	2019_Sep_25_1321	StressSession	03.01.2003	5.999.170.674.664.610
				black	purple	purple	black	left					0	22	22	217									left	14.172.676.266.662.100	6.654.146.901.333.330	None					mch	2	2019_Sep_25_1321	StressSession	03.01.2003	5.999.170.674.664.610
				black	cyan	black	cyan	right					0	23	23	104									right	10.708.706.133.336.800	6.673.532.061.866.680	None					mch	2	2019_Sep_25_1321	StressSession	03.01.2003	5.999.170.674.664.610
				black	blue	blue	black	left					0	24	24	211									left	12.481.817.600.000.700	66.895.164.544	None					mch	2	2019_Sep_25_1321	StressSession	03.01.2003	5.999.170.674.664.610
				orange	red	red	orange	left					0	25	25	174									left	1.413.415.253.333.360	6.707.466.154.666.670	None					mch	2	2019_Sep_25_1321	StressSession	03.01.2003	5.999.170.674.664.610
				white	blue	blue	white	left					0	26	26	202									left	14.628.317.866.663.500	672.697.236.906.668	None					mch	2	2019_Sep_25_1321	StressSession	03.01.2003	5.999.170.674.664.610
				red	purple	red	purple	right					0	27	27	6									right	10.012.053.333.339.200	6.746.869.277.866.680	None					mch	2	2019_Sep_25_1321	StressSession	03.01.2003	5.999.170.674.664.610
				brown	green	brown	green	right					0	28	28	84									right	10.664.486.400.000.800	6.762.211.242.666.670	None					mch	2	2019_Sep_25_1321	StressSession	03.01.2003	5.999.170.674.664.610
				purple	magenta	magenta	purple	left					0	29	29	186									left	2.070.900.906.666.790	6.778.246.054.400.000	None					mch	2	2019_Sep_25_1321	StressSession	03.01.2003	5.999.170.674.664.610
				cyan	purple	purple	cyan	left					0	30	30	152									left	10.460.279.466.660.700	6.804.340.424.533.340	None					mch	2	2019_Sep_25_1321	StressSession	03.01.2003	5.999.170.674.664.610
				green	yellow	green	yellow	right					0	31	31	22									right	13.907.165.866.676.200	682.016.855.466.667	None					mch	2	2019_Sep_25_1321	StressSession	03.01.2003	5.999.170.674.664.610
				brown	magenta	magenta	brown	left					0	32	32	195									left	13.033.715.199.999.200	6.839.522.133.333.330	None					mch	2	2019_Sep_25_1321	StressSession	03.01.2003	5.999.170.674.664.610
				yellow	purple	yellow	purple	right					0	33	33	51									right	10.159.991.466.662.100	6.858.002.026.666.670	None					mch	2	2019_Sep_25_1321	StressSession	03.01.2003	5.999.170.674.664.610
				blue	white	blue	white	right					0	34	34	17									right	11.585.164.799.998.800	6.873.450.410.666.660	None					mch	2	2019_Sep_25_1321	StressSession	03.01.2003	5.999.170.674.664.610
				yellow	black	yellow	black	right					0	35	35	54									right	10.418.009.599.998.100	6.890.461.934.933.330	None					mch	2	2019_Sep_25_1321	StressSession	03.01.2003	5.999.170.674.664.610
				cyan	black	black	cyan	left					0	36	36	155									left	10.318.429.866.674.700	6.906.242.350.933.330	None					mch	2	2019_Sep_25_1321	StressSession	03.01.2003	5.999.170.674.664.610
				blue	green	green	blue	left					0	37	37	120									left	0.9288588799990976	6.921.911.982.933.340	None					mch	2	2019_Sep_25_1321	StressSession	03.01.2003	5.999.170.674.664.610
				orange	purple	purple	orange	left					0	38	38	170									left	0.954834773334369	6.936.608.708.266.660	None					mch	2	2019_Sep_25_1321	StressSession	03.01.2003	5.999.170.674.664.610
				black	yellow	black	yellow	right					0	39	39	105									right	0.9967385599993577	6.951.550.033.066.660	None					mch	2	2019_Sep_25_1321	StressSession	03.01.2003	5.999.170.674.664.610
				brown	cyan	brown	cyan	right					0	40	40	86									right	18.217.053.866.665.000	6.966.898.542.933.340	None					mch	2	2019_Sep_25_1321	StressSession	03.01.2003	5.999.170.674.664.610
				white	magenta	magenta	white	left					0	41	41	204									left	1.079.529.813.332.550	6.990.560.486.400.000	None					mch	2	2019_Sep_25_1321	StressSession	03.01.2003	5.999.170.674.664.610
				brown	yellow	brown	yellow	right					0	42	42	87									right	11.465.156.266.658.500	7.006.695.820.800.010	None					mch	2	2019_Sep_25_1321	StressSession	03.01.2003	5.999.170.674.664.610
				purple	green	purple	green	right					0	43	43	75									right	0.7904567466666776	7.023.535.163.733.340	None					mch	2	2019_Sep_25_1321	StressSession	03.01.2003	5.999.170.674.664.610
				black	red	red	black	left					0	44	44	210									left	0.975630506667585	7.036.799.611.733.330	None					mch	2	2019_Sep_25_1321	StressSession	03.01.2003	5.999.170.674.664.610
				purple	red	red	purple	left					0	45	45	183									left	12.133.209.600.015.100	7.051.945.881.600.000	None					mch	2	2019_Sep_25_1321	StressSession	03.01.2003	5.999.170.674.664.610
				cyan	blue	cyan	blue	right					0	46	46	47									right	13.913.582.933.328.100	7.069.442.171.733.330	None					mch	2	2019_Sep_25_1321	StressSession	03.01.2003	5.999.170.674.664.610
				cyan	red	red	cyan	left					0	47	47	156									left	1.546.943.999.999.710	708.868.893.013.334	None					mch	2	2019_Sep_25_1321	StressSession	03.01.2003	5.999.170.674.664.610
				brown	white	white	brown	left					0	48	48	190									left	13.750.306.133.333.600	7.109.605.593.600.000	None					mch	2	2019_Sep_25_1321	StressSession	03.01.2003	5.999.170.674.664.610
				white	purple	purple	white	left					0	49	49	208									left	15.068.983.466.662.700	7.128.767.837.866.670	None					mch	2	2019_Sep_25_1321	StressSession	03.01.2003	5.999.170.674.664.610
				orange	brown	orange	brown	right					0	50	50	61									right	11.296.755.200.000.900	7.149.258.850.133.330	None					mch	2	2019_Sep_25_1321	StressSession	03.01.2003	5.999.170.674.664.610
				purple	brown	purple	brown	right					0	51	51	70									right	11.740.868.266.679.100	7.165.854.737.066.670	None					mch	2	2019_Sep_25_1321	StressSession	03.01.2003	5.999.170.674.664.610
				blue	yellow	yellow	blue	left					0	52	52	123									left	0.8167936000008922	7.183.027.763.200.000	None					mch	2	2019_Sep_25_1321	StressSession	03.01.2003	5.999.170.674.664.610
				white	purple	white	purple	right					0	53	53	98									right	0.9539020800002618	7.196.539.899.733.340	None					mch	2	2019_Sep_25_1321	StressSession	03.01.2003	5.999.170.674.664.610
				white	green	green	white	left					0	54	54	203									left	0.7674244266654568	72.114.410.752	None					mch	2	2019_Sep_25_1321	StressSession	03.01.2003	5.999.170.674.664.610
				green	black	black	green	left					0	55	55	137									left	0.7988812799994776	7.224.492.100.266.670	None					mch	2	2019_Sep_25_1321	StressSession	03.01.2003	5.999.170.674.664.610
				cyan	white	cyan	white	right					0	56	56	44									right	10.182.468.266.666.500	7.237.817.271.466.660	None					mch	2	2019_Sep_25_1321	StressSession	03.01.2003	5.999.170.674.664.610
				green	black	green	black	right					0	57	57	27									right	0.7940305066676956	7.253.338.986.666.670	None					mch	2	2019_Sep_25_1321	StressSession	03.01.2003	5.999.170.674.664.610
				green	brown	green	brown	right					0	58	58	25									right	0.9322005333342531	7.266.515.443.200.000	None					mch	2	2019_Sep_25_1321	StressSession	03.01.2003	5.999.170.674.664.610
				red	yellow	red	yellow	right					0	59	59	4									right	0.8014796799998294	7.281.100.492.799.990	None					mch	2	2019_Sep_25_1321	StressSession	03.01.2003	5.999.170.674.664.610
				black	green	black	green	right					0	60	60	102									right	0.7307861333320034	7.294.447.897.600.000	None					mch	2	2019_Sep_25_1321	StressSession	03.01.2003	5.999.170.674.664.610
				yellow	red	red	yellow	left					0	61	61	165									left	0.8090124800000922	7.307.107.217.066.670	None					mch	2	2019_Sep_25_1321	StressSession	03.01.2003	5.999.170.674.664.610
				purple	green	green	purple	left					0	62	62	185									left	16.336.098.133.342.600	7.320.618.862.933.330	None					mch	2	2019_Sep_25_1321	StressSession	03.01.2003	5.999.170.674.664.610
				red	blue	red	blue	right					0	63	63	0									right	0.7561497599999711	7.342.199.240.533.330	None					mch	2	2019_Sep_25_1321	StressSession	03.01.2003	5.999.170.674.664.610
				cyan	orange	cyan	orange	right					0	64	64	41									right	0.965189973334418	7.355.064.298.666.670	None					mch	2	2019_Sep_25_1321	StressSession	03.01.2003	5.999.170.674.664.610
				red	white	white	red	left					0	65	65	118									left	1.630.222.080.000.740	7.370.016.238.933.330	None					mch	2	2019_Sep_25_1321	StressSession	03.01.2003	5.999.170.674.664.610
				white	cyan	white	cyan	right					0	66	66	95									right	0.9622638933342387	7.391.653.256.533.330	None					mch	2	2019_Sep_25_1321	StressSession	03.01.2003	5.999.170.674.664.610
				yellow	purple	purple	yellow	left					0	67	67	161									left	15.983.820.799.992.800	7.406.732.057.600.000	None					mch	2	2019_Sep_25_1321	StressSession	03.01.2003	5.999.170.674.664.610
				orange	red	orange	red	right					0	68	68	64									right	0.8054818133332446	7.428.020.812.800.000	None					mch	2	2019_Sep_25_1321	StressSession	03.01.2003	5.999.170.674.664.610
				white	red	red	white	left					0	69	69	201									left	10.262.459.733.330.600	7.441.496.238.933.340	None					mch	2	2019_Sep_25_1321	StressSession	03.01.2003	5.999.170.674.664.610
				cyan	red	cyan	red	right					0	70	70	46									right	0.7683665066670073	7.457.117.367.466.670	None					mch	2	2019_Sep_25_1321	StressSession	03.01.2003	5.999.170.674.664.610
				red	orange	orange	red	left					0	71	71	115									left	0.9370636799994827	7.470.070.148.266.670	None					mch	2	2019_Sep_25_1321	StressSession	03.01.2003	5.999.170.674.664.610
				yellow	brown	brown	yellow	left					0	72	72	162									left	1.245.026.560.000.040	7.484.826.658.133.330	None					mch	2	2019_Sep_25_1321	StressSession	03.01.2003	5.999.170.674.664.610
				magenta	purple	purple	magenta	left					0	73	73	143									left	1.213.303.040.000.020	7.502.668.356.266.670	None					mch	2	2019_Sep_25_1321	StressSession	03.01.2003	5.999.170.674.664.610
				red	black	black	red	left					0	74	74	119									left	0.8145535999992717	7.520.091.822.933.330	None					mch	2	2019_Sep_25_1321	StressSession	03.01.2003	5.999.170.674.664.610
				black	yellow	yellow	black	left					0	75	75	215									left	1.184.775.253.332.190	7.533.592.644.266.660	None					mch	2	2019_Sep_25_1321	StressSession	03.01.2003	5.999.170.674.664.610
				purple	brown	brown	purple	left					0	76	76	180									left	0.9954240000006394	7.550.760.913.066.670	None					mch	2	2019_Sep_25_1321	StressSession	03.01.2003	5.999.170.674.664.610
				magenta	green	magenta	green	right					0	77	77	39									right	0.8294591999983822	7.566.106.163.200.000	None					mch	2	2019_Sep_25_1321	StressSession	03.01.2003	5.999.170.674.664.610
				red	blue	blue	red	left					0	78	78	110									left	0.7529083733334119	7.579.672.328.533.340	None					mch	2	2019_Sep_25_1321	StressSession	03.01.2003	5.999.170.674.664.610
				green	purple	purple	green	left					0	79	79	134									left	0.9289817600001697	7.592.551.039.999.990	None					mch	2	2019_Sep_25_1321	StressSession	03.01.2003	5.999.170.674.664.610
				red	black	red	black	right					0	80	80	9									right	0.6688247466663597	7.607.151.488	None					mch	2	2019_Sep_25_1321	StressSession	03.01.2003	5.999.170.674.664.610
				orange	white	white	orange	left					0	81	81	172									left	0.9188727466662385	7.619.209.480.533.330	None					mch	2	2019_Sep_25_1321	StressSession	03.01.2003	5.999.170.674.664.610
				black	orange	black	orange	right					0	82	82	106									right	10.493.717.333.338.200	7.633.742.263.466.660	None					mch	2	2019_Sep_25_1321	StressSession	03.01.2003	5.999.170.674.664.610
				green	magenta	magenta	green	left					0	83	83	130									left	0.9767291733351158	7.649.673.472.000.010	None					mch	2	2019_Sep_25_1321	StressSession	03.01.2003	5.999.170.674.664.610
				orange	blue	blue	orange	left					0	84	84	175									left	0.8525137066662865	7.664.831.735.466.660	None					mch	2	2019_Sep_25_1321	StressSession	03.01.2003	5.999.170.674.664.610
				yellow	green	yellow	green	right					0	85	85	57									right	0.7501030399998854	767.882.080.426.667	None					mch	2	2019_Sep_25_1321	StressSession	03.01.2003	5.999.170.674.664.610
				orange	black	orange	black	right					0	86	86	63									right	0.7556356266668445	7.691.639.505.066.660	None					mch	2	2019_Sep_25_1321	StressSession	03.01.2003	5.999.170.674.664.610
				magenta	orange	magenta	orange	right					0	87	87	32									left	0.9728614399991784	7.704.671.820.800.010	None					mch	2	2019_Sep_25_1321	StressSession	03.01.2003	5.999.170.674.664.610
				magenta	blue	magenta	blue	right					0	88	88	38									right	1.347.801.600.000.820	7.719.644.761.600.010	None					mch	2	2019_Sep_25_1321	StressSession	03.01.2003	5.999.170.674.664.610
				magenta	black	magenta	black	right					0	89	89	36									right	0.7943385600010515	7.738.295.688.533.340	None					mch	2	2019_Sep_25_1321	StressSession	03.01.2003	5.999.170.674.664.610
				blue	brown	blue	brown	right					0	90	90	16									right	11.073.672.533.329.900	7.751.562.269.866.680	None					mch	2	2019_Sep_25_1321	StressSession	03.01.2003	5.999.170.674.664.610
				magenta	white	white	magenta	left					0	91	91	145									left	14.976.985.600.005.700	7.768.141.969.066.670	None					mch	2	2019_Sep_25_1321	StressSession	03.01.2003	5.999.170.674.664.610
				green	yellow	yellow	green	left					0	92	92	132									left	0.9297659733329056	7.788.542.126.933.330	None					mch	2	2019_Sep_25_1321	StressSession	03.01.2003	5.999.170.674.664.610
				yellow	white	white	yellow	left					0	93	93	163									left	1.325.240.746.666.160	7.803.228.539.733.330	None					mch	2	2019_Sep_25_1321	StressSession	03.01.2003	5.999.170.674.664.610
				blue	red	red	blue	left					0	94	94	129									left	0.9305890133327921	7.821.813.828.266.670	None					mch	2	2019_Sep_25_1321	StressSession	03.01.2003	5.999.170.674.664.610
				purple	white	white	purple	left					0	95	95	181									left	13.454.745.599.992.700	7.836.546.589.866.660	None					mch	2	2019_Sep_25_1321	StressSession	03.01.2003	5.999.170.674.664.610
				yellow	green	green	yellow	left					0	96	96	167									left	0.9935833599993202	7.855.344.853.333.330	None					mch	2	2019_Sep_25_1321	StressSession	03.01.2003	5.999.170.674.664.610
				yellow	black	black	yellow	left					0	97	97	164									left	13.158.293.333.326.500	7.870.519.496.533.340	None					mch	2	2019_Sep_25_1321	StressSession	03.01.2003	5.999.170.674.664.610
				red	brown	red	brown	right					0	98	98	7									right	18.914.103.466.668.100	7.888.923.374.933.340	None					mch	2	2019_Sep_25_1321	StressSession	03.01.2003	5.999.170.674.664.610
				blue	green	blue	green	right					0	99	99	10									right	18.978.350.933.321.000	791.326.247.680.001	None					mch	2	2019_Sep_25_1321	StressSession	03.01.2003	5.999.170.674.664.610
				black	brown	black	brown	right					0	100	100	108									right	1.578.013.866.666.870	7.937.580.467.200.000	None					mch	2	2019_Sep_25_1321	StressSession	03.01.2003	5.999.170.674.664.610
				cyan	yellow	cyan	yellow	right					0	101	101	40									right	11.747.225.599.992.800	7.958.729.169.066.660	None					mch	2	2019_Sep_25_1321	StressSession	03.01.2003	5.999.170.674.664.610
				red	green	red	green	right					0	102	102	1									right	15.573.324.799.988.700	7.975.864.281.600.000	None					mch	2	2019_Sep_25_1321	StressSession	03.01.2003	5.999.170.674.664.610
				white	yellow	yellow	white	left					0	103	103	206									right	2.311.574.613.333.500	799.688.247.893.333	None					mch	2	2019_Sep_25_1321	StressSession	03.01.2003	5.999.170.674.664.610
				purple	cyan	cyan	purple	left					0	104	104	187									left	2.767.225.600.000.520	8.025.364.966.400.010	None					mch	2	2019_Sep_25_1321	StressSession	03.01.2003	5.999.170.674.664.610
				green	red	red	green	left					0	105	105	138									left	15.540.595.200.000.000	8.058.298.039.466.680	None					mch	2	2019_Sep_25_1321	StressSession	03.01.2003	5.999.170.674.664.610
				purple	white	purple	white	right					0	106	106	71									right	11.613.316.266.666.500	8.079.187.136	None					mch	2	2019_Sep_25_1321	StressSession	03.01.2003	5.999.170.674.664.610
				white	green	white	green	right					0	107	107	93									right	15.882.239.999.991.700	8.096.198.660.266.670	None					mch	2	2019_Sep_25_1321	StressSession	03.01.2003	5.999.170.674.664.610
				cyan	yellow	yellow	cyan	left					0	108	108	150									left	12.725.738.666.667.800	8.117.430.609.066.660	None					mch	2	2019_Sep_25_1321	StressSession	03.01.2003	5.999.170.674.664.610
				yellow	cyan	cyan	yellow	left					0	109	109	169									left	1.118.100.053.332.450	8.135.614.545.066.670	None					mch	2	2019_Sep_25_1321	StressSession	03.01.2003	5.999.170.674.664.610
				magenta	yellow	yellow	magenta	left					0	110	110	141									left	25.467.818.666.675.100	8.152.127.078.400.000	None					mch	2	2019_Sep_25_1321	StressSession	03.01.2003	5.999.170.674.664.610
				yellow	red	yellow	red	right					0	111	111	55									right	155.213.098.666.718	8.182.797.401.600.000	None					mch	2	2019_Sep_25_1321	StressSession	03.01.2003	5.999.170.674.664.610
				magenta	blue	blue	magenta	left					0	112	112	148									left	0.8329480533320748	8.203.747.157.333.340	None					mch	2	2019_Sep_25_1321	StressSession	03.01.2003	5.999.170.674.664.610
				black	magenta	black	magenta	right					0	113	113	103									right	13.454.459.733.329.700	8.217.263.424.000.010	None					mch	2	2019_Sep_25_1321	StressSession	03.01.2003	5.999.170.674.664.610
				white	cyan	cyan	white	left					0	114	114	205									left	0.9431138133331842	8.236.006.963.199.990	None					mch	2	2019_Sep_25_1321	StressSession	03.01.2003	5.999.170.674.664.610
				purple	red	purple	red	right					0	115	115	73									right	0.8840908800011675	8.250.840.465.066.660	None					mch	2	2019_Sep_25_1321	StressSession	03.01.2003	5.999.170.674.664.610
				magenta	brown	brown	magenta	left					0	116	116	144									left	11.125.474.133.332.300	826.503.518.720.001	None					mch	2	2019_Sep_25_1321	StressSession	03.01.2003	5.999.170.674.664.610
				yellow	blue	yellow	blue	right					0	117	117	56									right	15.070.707.199.993.100	8.281.484.774.400.010	None					mch	2	2019_Sep_25_1321	StressSession	03.01.2003	5.999.170.674.664.610
				purple	yellow	purple	yellow	right					0	118	118	78									right	1.616.446.719.999.650	8.301.993.920.000.000	None					mch	2	2019_Sep_25_1321	StressSession	03.01.2003	5.999.170.674.664.610
				purple	black	purple	black	right					0	119	119	72									right	0.7485277866671822	8.323.313.228.799.990	None					mch	2	2019_Sep_25_1321	StressSession	03.01.2003	5.999.170.674.664.610
				magenta	black	black	magenta	left					0	120	120	146									left	0.969169066665927	8.336.143.697.066.670	None					mch	2	2019_Sep_25_1321	StressSession	03.01.2003	5.999.170.674.664.610
				orange	yellow	orange	yellow	right					0	121	121	69									left	0.8481911466660677	8.351.279.522.133.330	None					mch	2	2019_Sep_25_1321	StressSession	03.01.2003	5.999.170.674.664.610
				black	red	black	red	right					0	122	122	100									right	1.460.837.119.999.260	8.365.070.016.000.000	None					mch	2	2019_Sep_25_1321	StressSession	03.01.2003	5.999.170.674.664.610
				green	orange	green	orange	right					0	123	123	23									right	12.377.190.400.002.200	8.385.061.593.600.000	None					mch	2	2019_Sep_25_1321	StressSession	03.01.2003	5.999.170.674.664.610
				blue	orange	orange	blue	left					0	124	124	124									left	11.208.512.000.011.900	8.402.869.708.800.000	None					mch	2	2019_Sep_25_1321	StressSession	03.01.2003	5.999.170.674.664.610
				brown	white	brown	white	right					0	125	125	80									right	1.032.044.373.334.420	8.419.520.968.533.340	None					mch	2	2019_Sep_25_1321	StressSession	03.01.2003	5.999.170.674.664.610
				blue	red	blue	red	right					0	126	126	19									right	0.7556198399997811	8.435.159.095.466.670	None					mch	2	2019_Sep_25_1321	StressSession	03.01.2003	5.999.170.674.664.610
				cyan	purple	cyan	purple	right					0	127	127	42									right	1.222.325.760.001.690	8.448.012.066.133.340	None					mch	2	2019_Sep_25_1321	StressSession	03.01.2003	5.999.170.674.664.610
				brown	blue	brown	blue	right					0	128	128	83									right	11.705.830.399.987.400	8.465.651.400.533.330	None					mch	2	2019_Sep_25_1321	StressSession	03.01.2003	5.999.170.674.664.610
				black	brown	brown	black	left					0	129	129	218									left	16.158.698.666.658.800	8.482.557.158.400.010	None					mch	2	2019_Sep_25_1321	StressSession	03.01.2003	5.999.170.674.664.610
				magenta	brown	magenta	brown	right					0	130	130	34									right	19.815.185.066.654.500	8.504.182.749.866.660	None					mch	2	2019_Sep_25_1321	StressSession	03.01.2003	5.999.170.674.664.610
				cyan	brown	brown	cyan	left					0	131	131	153									left	12.565.781.333.341.800	8.529.429.768.533.330	None					mch	2	2019_Sep_25_1321	StressSession	03.01.2003	5.999.170.674.664.610
				yellow	white	yellow	white	right					0	132	132	53									right	0.8548398933326098	8.547.447.253.333.330	None					mch	2	2019_Sep_25_1321	StressSession	03.01.2003	5.999.170.674.664.610
				white	brown	brown	white	left					0	133	133	209									left	17.145.770.666.684.200	8.561.331.959.466.670	None					mch	2	2019_Sep_25_1321	StressSession	03.01.2003	5.999.170.674.664.610
				cyan	blue	blue	cyan	left					0	134	134	157									left	1.499.728.213.333.580	8.583.878.600.533.330	None					mch	2	2019_Sep_25_1321	StressSession	03.01.2003	5.999.170.674.664.610
				green	red	green	red	right					0	135	135	28									right	15.886.937.600.007.500	8.604.190.476.800.010	None					mch	2	2019_Sep_25_1321	StressSession	03.01.2003	5.999.170.674.664.610
				yellow	magenta	magenta	yellow	left					0	136	136	168									left	0.9960537599999952	8.625.561.169.066.670	None					mch	2	2019_Sep_25_1321	StressSession	03.01.2003	5.999.170.674.664.610
				blue	white	white	blue	left					0	137	137	127									left	0.8850389333329076	8.640.829.439.999.990	None					mch	2	2019_Sep_25_1321	StressSession	03.01.2003	5.999.170.674.664.610
				brown	magenta	brown	magenta	right					0	138	138	85									right	12.306.982.400.004.900	8.655.050.218.666.670	None					mch	2	2019_Sep_25_1321	StressSession	03.01.2003	5.999.170.674.664.610
				red	brown	brown	red	left					0	139	139	117									left	13.004.552.533.329.800	8.672.995.886.933.330	None					mch	2	2019_Sep_25_1321	StressSession	03.01.2003	5.999.170.674.664.610
				yellow	blue	blue	yellow	left					0	140	140	166									left	0.9801527466661355	8.691.316.317.866.670	None					mch	2	2019_Sep_25_1321	StressSession	03.01.2003	5.999.170.674.664.610
				magenta	yellow	magenta	yellow	right					0	141	141	31									right	13.156.074.666.658.200	8.706.443.374.933.330	None					mch	2	2019_Sep_25_1321	StressSession	03.01.2003	5.999.170.674.664.610
				blue	black	blue	black	right					0	142	142	18									right	0.8035835733335261	8.724.925.452.799.990	None					mch	2	2019_Sep_25_1321	StressSession	03.01.2003	5.999.170.674.664.610
				green	orange	orange	green	left					0	143	143	133									left	0.9004377599994768	873.827.635.626.667	None					mch	2	2019_Sep_25_1321	StressSession	03.01.2003	5.999.170.674.664.610
				orange	purple	orange	purple	right					0	144	144	60									right	0.8408046933327569	875.254.915.413.334	None					mch	2	2019_Sep_25_1321	StressSession	03.01.2003	5.999.170.674.664.610
				green	white	green	white	right					0	145	145	26									right	0.9345096533324977	876.625.227.946.668	None					mch	2	2019_Sep_25_1321	StressSession	03.01.2003	5.999.170.674.664.610
				white	yellow	white	yellow	right					0	146	146	96									right	0.93241216000024	8.780.917.209.600.010	None					mch	2	2019_Sep_25_1321	StressSession	03.01.2003	5.999.170.674.664.610
				black	white	white	black	left					0	147	147	219									left	10.862.937.599.995.300	8.795.454.664.533.330	None					mch	2	2019_Sep_25_1321	StressSession	03.01.2003	5.999.170.674.664.610
				cyan	magenta	magenta	cyan	left					0	148	148	159									left	1.076.206.079.998.880	8.811.716.292.266.660	None					mch	2	2019_Sep_25_1321	StressSession	03.01.2003	5.999.170.674.664.610
				green	magenta	green	magenta	right					0	149	149	20									right	14.451.293.866.677.500	882.786.440.533.333	None					mch	2	2019_Sep_25_1321	StressSession	03.01.2003	5.999.170.674.664.610
				orange	cyan	orange	cyan	right					0	150	150	68									right	2.079.536.213.332.170	8.847.685.811.200.000	None					mch	2	2019_Sep_25_1321	StressSession	03.01.2003	5.999.170.674.664.610
				blue	orange	blue	orange	right					0	151	151	14									right	0.9283686399994622	8.873.834.265.599.990	None					mch	2	2019_Sep_25_1321	StressSession	03.01.2003	5.999.170.674.664.610
				yellow	orange	orange	yellow	left					0	152	152	160									left	0.9861491199990269	8.888.535.637.333.330	None					mch	2	2019_Sep_25_1321	StressSession	03.01.2003	5.999.170.674.664.610
				brown	green	green	brown	left					0	153	153	194									left	1.099.182.079.999.080	8.903.808.874.666.660	None					mch	2	2019_Sep_25_1321	StressSession	03.01.2003	5.999.170.674.664.610
				green	cyan	cyan	green	left					0	154	154	131									left	11.172.159.999.987.300	8.920.112.234.666.660	None					mch	2	2019_Sep_25_1321	StressSession	03.01.2003	5.999.170.674.664.610
				magenta	green	green	magenta	left					0	155	155	149									left	0.9489971200000582	8.936.665.659.733.330	None					mch	2	2019_Sep_25_1321	StressSession	03.01.2003	5.999.170.674.664.610
				white	black	black	white	left					0	156	156	200									left	0.9516061866670498	8.951.602.611.200.010	None					mch	2	2019_Sep_25_1321	StressSession	03.01.2003	5.999.170.674.664.610
				white	orange	white	orange	right					0	157	157	97									right	0.923374079999121	896.636.530.773.334	None					mch	2	2019_Sep_25_1321	StressSession	03.01.2003	5.999.170.674.664.610
				green	cyan	green	cyan	right					0	158	158	21									right	0.9575240533340548	8.980.900.829.866.670	None					mch	2	2019_Sep_25_1321	StressSession	03.01.2003	5.999.170.674.664.610
				blue	cyan	blue	cyan	right					0	159	159	12									right	20.441.113.600.008.900	8.995.797.721.600.010	None					mch	2	2019_Sep_25_1321	StressSession	03.01.2003	5.999.170.674.664.610
				orange	white	orange	white	right					0	160	160	62									right	10.588.317.866.659.000	9.021.572.505.599.990	None					mch	2	2019_Sep_25_1321	StressSession	03.01.2003	5.999.170.674.664.610
				purple	cyan	purple	cyan	right					0	161	161	77									right	1.246.170.880.000.130	9.037.539.746.133.330	None					mch	2	2019_Sep_25_1321	StressSession	03.01.2003	5.999.170.674.664.610
				orange	cyan	cyan	orange	left					0	162	162	178									left	11.034.581.333.333.300	9.055.360.977.066.660	None					mch	2	2019_Sep_25_1321	StressSession	03.01.2003	5.999.170.674.664.610
				brown	yellow	yellow	brown	left					0	163	163	197									left	1.065.982.719.999.730	9.071.816.319.999.990	None					mch	2	2019_Sep_25_1321	StressSession	03.01.2003	5.999.170.674.664.610
				brown	red	brown	red	right					0	164	164	82									right	0.6922487466654275	9.087.712.452.266.670	None					mch	2	2019_Sep_25_1321	StressSession	03.01.2003	5.999.170.674.664.610
				cyan	magenta	cyan	magenta	right					0	165	165	49									right	1.035.514.453.333.230	9.099.965.725.866.670	None					mch	2	2019_Sep_25_1321	StressSession	03.01.2003	5.999.170.674.664.610
				red	cyan	cyan	red	left					0	166	166	113									left	10.480.106.666.655.000	9.115.515.703.466.680	None					mch	2	2019_Sep_25_1321	StressSession	03.01.2003	5.999.170.674.664.610
				magenta	red	red	magenta	left					0	167	167	147									left	0.956327253334166	9.131.475.080.533.340	None					mch	2	2019_Sep_25_1321	StressSession	03.01.2003	5.999.170.674.664.610
				blue	purple	blue	purple	right					0	168	168	15									right	10.342.208.000.001.800	9.146.454.873.600.010	None					mch	2	2019_Sep_25_1321	StressSession	03.01.2003	5.999.170.674.664.610
				magenta	red	magenta	red	right					0	169	169	37									right	1.076.374.186.666.720	9.162.114.794.666.660	None					mch	2	2019_Sep_25_1321	StressSession	03.01.2003	5.999.170.674.664.610
				magenta	purple	magenta	purple	right					0	170	170	33									right	15.477.806.933.322.400	9.178.117.990.400.000	None					mch	2	2019_Sep_25_1321	StressSession	03.01.2003	5.999.170.674.664.610
				purple	blue	blue	purple	left					0	171	171	184									left	11.171.170.133.329.700	9.198.829.538.133.340	None					mch	2	2019_Sep_25_1321	StressSession	03.01.2003	5.999.170.674.664.610
				orange	green	orange	green	right					0	172	172	66									right	0.8122602666662715	9.215.395.733.333.330	None					mch	2	2019_Sep_25_1321	StressSession	03.01.2003	5.999.170.674.664.610
				black	magenta	magenta	black	left					0	173	173	213									left	10.090.850.133.328.700	9.228.865.587.199.990	None					mch	2	2019_Sep_25_1321	StressSession	03.01.2003	5.999.170.674.664.610
				cyan	white	white	cyan	left					0	174	174	154									left	0.9663679999994201	9.244.336.644.266.670	None					mch	2	2019_Sep_25_1321	StressSession	03.01.2003	5.999.170.674.664.610
				black	white	black	white	right					0	175	175	109									right	12.985.958.400.004.100	9.259.329.834.666.670	None					mch	2	2019_Sep_25_1321	StressSession	03.01.2003	5.999.170.674.664.610
				orange	green	green	orange	left					0	176	176	176									left	12.084.160.000.013.000	9.277.676.428.800.000	None					mch	2	2019_Sep_25_1321	StressSession	03.01.2003	5.999.170.674.664.610
				blue	cyan	cyan	blue	left					0	177	177	122									right	15.203.225.599.998.400	9.295.118.092.800.000	None					mch	2	2019_Sep_25_1321	StressSession	03.01.2003	5.999.170.674.664.610
				brown	orange	brown	orange	right					0	178	178	88									right	17.654.937.600.000.200	9.315.630.626.133.330	None					mch	2	2019_Sep_25_1321	StressSession	03.01.2003	5.999.170.674.664.610
				brown	purple	purple	brown	left					0	179	179	199									left	10.003.037.866.663.300	9.338.558.045.866.660	None					mch	2	2019_Sep_25_1321	StressSession	03.01.2003	5.999.170.674.664.610
				orange	blue	orange	blue	right					0	180	180	65									right	13.252.505.599.994.000	9.353.948.373.333.330	None					mch	2	2019_Sep_25_1321	StressSession	03.01.2003	5.999.170.674.664.610
				red	cyan	red	cyan	right					0	181	181	3									right	10.990.165.333.332.600	937.252.802.986.668	None					mch	2	2019_Sep_25_1321	StressSession	03.01.2003	5.999.170.674.664.610
				green	blue	green	blue	right					0	182	182	29									right	11.012.228.266.663.400	9.388.906.773.333.340	None					mch	2	2019_Sep_25_1321	StressSession	03.01.2003	5.999.170.674.664.610
				magenta	cyan	cyan	magenta	left					0	183	183	140									left	1.240.532.053.332.570	9.405.270.425.600.010	None					mch	2	2019_Sep_25_1321	StressSession	03.01.2003	5.999.170.674.664.610
				orange	magenta	magenta	orange	left					0	184	184	177									left	12.091.114.666.673.000	942.311.114.666.667	None					mch	2	2019_Sep_25_1321	StressSession	03.01.2003	5.999.170.674.664.610
				black	green	green	black	left					0	185	185	212									left	0.9082875733347464	9.440.513.702.400.000	None					mch	2	2019_Sep_25_1321	StressSession	03.01.2003	5.999.170.674.664.610
				brown	cyan	cyan	brown	left					0	186	186	196									left	10.747.537.066.654.300	945.500.890.880.001	None					mch	2	2019_Sep_25_1321	StressSession	03.01.2003	5.999.170.674.664.610
				blue	purple	purple	blue	left					0	187	187	125									left	11.314.440.533.333.200	94.711.648.384	None					mch	2	2019_Sep_25_1321	StressSession	03.01.2003	5.999.170.674.664.610
				white	blue	white	blue	right					0	188	188	92									right	1.198.821.546.666.290	9.487.772.684.800.000	None					mch	2	2019_Sep_25_1321	StressSession	03.01.2003	5.999.170.674.664.610
				green	blue	blue	green	left					0	189	189	139									left	1.614.736.213.334.250	9.505.129.408.000.010	None					mch	2	2019_Sep_25_1321	StressSession	03.01.2003	5.999.170.674.664.610
				black	cyan	cyan	black	left					0	190	190	214									left	13.387.840.000.013.900	9.526.610.278.400.000	None					mch	2	2019_Sep_25_1321	StressSession	03.01.2003	5.999.170.674.664.610
				cyan	green	cyan	green	right					0	191	191	48									right	0.721746773333507	9.545.343.321.600.010	None					mch	2	2019_Sep_25_1321	StressSession	03.01.2003	5.999.170.674.664.610
				brown	black	black	brown	left					0	192	192	191									left	0.9036876800000755	9.557.918.617.600.000	None					mch	2	2019_Sep_25_1321	StressSession	03.01.2003	5.999.170.674.664.610
				green	white	white	green	left					0	193	193	136									left	14.478.203.733.342.500	9.572.241.442.133.340	None					mch	2	2019_Sep_25_1321	StressSession	03.01.2003	5.999.170.674.664.610
				green	purple	green	purple	right					0	194	194	24									right	0.8953574400002253	9.592.005.730.133.330	None					mch	2	2019_Sep_25_1321	StressSession	03.01.2003	5.999.170.674.664.610
				red	white	red	white	right					0	195	195	8									right	10.060.057.600.003.300	9.606.339.993.600.010	None					mch	2	2019_Sep_25_1321	StressSession	03.01.2003	5.999.170.674.664.610
				brown	purple	brown	purple	right					0	196	196	89									right	10.458.854.400.003.400	9.621.701.934.933.330	None					mch	2	2019_Sep_25_1321	StressSession	03.01.2003	5.999.170.674.664.610
				red	magenta	magenta	red	left					0	197	197	112									left	116.888.490.666.679	9.637.511.048.533.340	None					mch	2	2019_Sep_25_1321	StressSession	03.01.2003	5.999.170.674.664.610
				red	purple	purple	red	left					0	198	198	116									left	13.293.201.066.662.700	9.654.387.938.133.330	None					mch	2	2019_Sep_25_1321	StressSession	03.01.2003	5.999.170.674.664.610
				yellow	brown	yellow	brown	right					0	199	199	52									right	0.9621529599990026	9.673.015.816.533.330	None					mch	2	2019_Sep_25_1321	StressSession	03.01.2003	5.999.170.674.664.610
				red	green	green	red	left					0	200	200	111									left	0.7970504533332132	9.687.945.331.200.000	None					mch	2	2019_Sep_25_1321	StressSession	03.01.2003	5.999.170.674.664.610
				white	magenta	white	magenta	right					0	201	201	94									right	0.8230335999996896	9.701.370.525.866.670	None					mch	2	2019_Sep_25_1321	StressSession	03.01.2003	5.999.170.674.664.610
				white	red	white	red	right					0	202	202	91									right	0.7888652799992997	9.714.829.602.133.340	None					mch	2	2019_Sep_25_1321	StressSession	03.01.2003	5.999.170.674.664.610
				white	brown	white	brown	right					0	203	203	99									right	10.248.529.066.666.300	9.727.992.584.533.330	None					mch	2	2019_Sep_25_1321	StressSession	03.01.2003	5.999.170.674.664.610
				white	black	white	black	right					0	204	204	90									right	0.8438024533334101	9.743.480.064.000.010	None					mch	2	2019_Sep_25_1321	StressSession	03.01.2003	5.999.170.674.664.610
				purple	blue	purple	blue	right					0	205	205	74									right	0.7517917866662174	9.757.278.715.733.330	None					mch	2	2019_Sep_25_1321	StressSession	03.01.2003	5.999.170.674.664.610
				blue	yellow	blue	yellow	right					0	206	206	13									right	0.9123686399998405	9.770.076.727.466.670	None					mch	2	2019_Sep_25_1321	StressSession	03.01.2003	5.999.170.674.664.610
				red	yellow	yellow	red	left					0	207	207	114									left	12.014.365.866.671.100	9.784.541.077.333.340	None					mch	2	2019_Sep_25_1321	StressSession	03.01.2003	5.999.170.674.664.610
				white	orange	orange	white	left					0	208	208	207									left	10.235.630.933.348.100	9.801.923.729.066.670	None					mch	2	2019_Sep_25_1321	StressSession	03.01.2003	5.999.170.674.664.610
				blue	magenta	blue	magenta	right					0	209	209	11									right	0.7715468799997325	9.817.560.320.000.010	None					mch	2	2019_Sep_25_1321	StressSession	03.01.2003	5.999.170.674.664.610
				brown	black	brown	black	right					0	210	210	81									right	18.981.043.200.001.200	9.830.696.371.200.010	None					mch	2	2019_Sep_25_1321	StressSession	03.01.2003	5.999.170.674.664.610
				brown	red	red	brown	left					0	211	211	192									left	0.7160076799991657	9.854.919.133.866.670	None					mch	2	2019_Sep_25_1321	StressSession	03.01.2003	5.999.170.674.664.610
				black	orange	orange	black	left					0	212	212	216									left	0.7530841600000713	986.750.617.173.333	None					mch	2	2019_Sep_25_1321	StressSession	03.01.2003	5.999.170.674.664.610
				purple	black	black	purple	left					0	213	213	182									left	30.059.938.133.326.700	9.880.337.049.600.000	None					mch	2	2019_Sep_25_1321	StressSession	03.01.2003	5.999.170.674.664.610
				purple	magenta	purple	magenta	right					0	214	214	76									right	0.6877657599998201	9.915.763.054.933.340	None					mch	2	2019_Sep_25_1321	StressSession	03.01.2003	5.999.170.674.664.610
				orange	brown	brown	orange	left					0	215	215	171									left	0.8744870400005311	992.797.096.960.001	None					mch	2	2019_Sep_25_1321	StressSession	03.01.2003	5.999.170.674.664.610
				black	purple	black	purple	right					0	216	216	107									right	0.8611285333336127	9.942.104.251.733.340	None					mch	2	2019_Sep_25_1321	StressSession	03.01.2003	5.999.170.674.664.610
				orange	magenta	orange	magenta	right					0	217	217	67									right	1.465.001.813.332.490	995.614.781.440.001	None					mch	2	2019_Sep_25_1321	StressSession	03.01.2003	5.999.170.674.664.610
				blue	brown	brown	blue	left					0	218	218	126									left	0.9769152000008035	9.976.068.450.133.330	None					mch	2	2019_Sep_25_1321	StressSession	03.01.2003	5.999.170.674.664.610
				blue	black	black	blue	left					0	219	219	128									left	0.936529493332273	9.991.110.771.200.000	None					mch	2	2019_Sep_25_1321	StressSession	03.01.2003	5.999.170.674.664.610
																				4	11.759								2019-09-25_13:37:56				mch	2	2019_Sep_25_1321	StressSession	03.01.2003	5.999.170.674.664.610
																						2	7.072										mch	2	2019_Sep_25_1321	StressSession	03.01.2003	5.999.170.674.664.610
																				2	7.672									2019-09-25_13:38:43	2019-09-25_13:43:43		mch	2	2019_Sep_25_1321	StressSession	03.01.2003	5.999.170.674.664.610
																																2019-09-25_13:43:53						
