Tick,Color,Tone,TimeDur,WordItem,WordColor,AnsLeft,AnsRight,AnsCorr,tick.thisRepN,tick.thisTrialN,tick.thisN,tick.thisIndex,stroop_trials.thisRepN,stroop_trials.thisTrialN,stroop_trials.thisN,stroop_trials.thisIndex,start_session_two,start_stress_one,end_stress_one,rating_evaluation_one.response,rating_evaluation_one.rt,rating_evaluation_two.response,rating_evaluation_two.rt,start_stress_two,key_resp_part_two_meas.keys,key_resp_part_two_meas.rt,key_resp_part_two_meas.started,key_resp_part_two_meas.stopped,end_stress_two,start_cooldown_measurement,end_cooldown_measurement,end_session_two,participant,session,date,expName,psychopyVersion,frameRate,
1,green,440,1.0,,,,,,0,0,0,0,,,,,2019-09-25_13:21:25,2019-09-25_13:22:49,,,,,,,,,,,,,,,mch,002,2019_Sep_25_1321,StressSession,3.1.3,59.99170674664615,
2,green,440,1.0,,,,,,0,1,1,1,,,,,,,,,,,,,,,,,,,,,mch,002,2019_Sep_25_1321,StressSession,3.1.3,59.99170674664615,
3,green,440,1.0,,,,,,0,2,2,2,,,,,,,,,,,,,,,,,,,,,mch,002,2019_Sep_25_1321,StressSession,3.1.3,59.99170674664615,
4,green,440,1.0,,,,,,0,3,3,3,,,,,,,,,,,,,,,,,,,,,mch,002,2019_Sep_25_1321,StressSession,3.1.3,59.99170674664615,
5,green,440,1.0,,,,,,0,4,4,4,,,,,,,,,,,,,,,,,,,,,mch,002,2019_Sep_25_1321,StressSession,3.1.3,59.99170674664615,
6,green,440,1.0,,,,,,0,5,5,5,,,,,,,,,,,,,,,,,,,,,mch,002,2019_Sep_25_1321,StressSession,3.1.3,59.99170674664615,
7,green,440,1.0,,,,,,0,6,6,6,,,,,,,,,,,,,,,,,,,,,mch,002,2019_Sep_25_1321,StressSession,3.1.3,59.99170674664615,
8,green,440,1.0,,,,,,0,7,7,7,,,,,,,,,,,,,,,,,,,,,mch,002,2019_Sep_25_1321,StressSession,3.1.3,59.99170674664615,
9,green,440,1.0,,,,,,0,8,8,8,,,,,,,,,,,,,,,,,,,,,mch,002,2019_Sep_25_1321,StressSession,3.1.3,59.99170674664615,
10,green,440,1.0,,,,,,0,9,9,9,,,,,,,,,,,,,,,,,,,,,mch,002,2019_Sep_25_1321,StressSession,3.1.3,59.99170674664615,
11,green,440,1.0,,,,,,0,10,10,10,,,,,,,,,,,,,,,,,,,,,mch,002,2019_Sep_25_1321,StressSession,3.1.3,59.99170674664615,
12,green,440,1.0,,,,,,0,11,11,11,,,,,,,,,,,,,,,,,,,,,mch,002,2019_Sep_25_1321,StressSession,3.1.3,59.99170674664615,
13,green,440,1.0,,,,,,0,12,12,12,,,,,,,,,,,,,,,,,,,,,mch,002,2019_Sep_25_1321,StressSession,3.1.3,59.99170674664615,
14,green,440,1.0,,,,,,0,13,13,13,,,,,,,,,,,,,,,,,,,,,mch,002,2019_Sep_25_1321,StressSession,3.1.3,59.99170674664615,
15,green,440,1.0,,,,,,0,14,14,14,,,,,,,,,,,,,,,,,,,,,mch,002,2019_Sep_25_1321,StressSession,3.1.3,59.99170674664615,
16,green,440,1.0,,,,,,0,15,15,15,,,,,,,,,,,,,,,,,,,,,mch,002,2019_Sep_25_1321,StressSession,3.1.3,59.99170674664615,
17,green,440,1.0,,,,,,0,16,16,16,,,,,,,,,,,,,,,,,,,,,mch,002,2019_Sep_25_1321,StressSession,3.1.3,59.99170674664615,
18,green,440,1.0,,,,,,0,17,17,17,,,,,,,,,,,,,,,,,,,,,mch,002,2019_Sep_25_1321,StressSession,3.1.3,59.99170674664615,
19,green,440,1.0,,,,,,0,18,18,18,,,,,,,,,,,,,,,,,,,,,mch,002,2019_Sep_25_1321,StressSession,3.1.3,59.99170674664615,
20,green,440,1.0,,,,,,0,19,19,19,,,,,,,,,,,,,,,,,,,,,mch,002,2019_Sep_25_1321,StressSession,3.1.3,59.99170674664615,
21,green,440,1.0,,,,,,0,20,20,20,,,,,,,,,,,,,,,,,,,,,mch,002,2019_Sep_25_1321,StressSession,3.1.3,59.99170674664615,
22,green,440,1.0,,,,,,0,21,21,21,,,,,,,,,,,,,,,,,,,,,mch,002,2019_Sep_25_1321,StressSession,3.1.3,59.99170674664615,
23,green,440,1.0,,,,,,0,22,22,22,,,,,,,,,,,,,,,,,,,,,mch,002,2019_Sep_25_1321,StressSession,3.1.3,59.99170674664615,
24,green,440,1.0,,,,,,0,23,23,23,,,,,,,,,,,,,,,,,,,,,mch,002,2019_Sep_25_1321,StressSession,3.1.3,59.99170674664615,
25,green,440,1.0,,,,,,0,24,24,24,,,,,,,,,,,,,,,,,,,,,mch,002,2019_Sep_25_1321,StressSession,3.1.3,59.99170674664615,
26,green,440,1.0,,,,,,0,25,25,25,,,,,,,,,,,,,,,,,,,,,mch,002,2019_Sep_25_1321,StressSession,3.1.3,59.99170674664615,
27,green,440,1.0,,,,,,0,26,26,26,,,,,,,,,,,,,,,,,,,,,mch,002,2019_Sep_25_1321,StressSession,3.1.3,59.99170674664615,
28,green,440,1.0,,,,,,0,27,27,27,,,,,,,,,,,,,,,,,,,,,mch,002,2019_Sep_25_1321,StressSession,3.1.3,59.99170674664615,
29,green,440,1.0,,,,,,0,28,28,28,,,,,,,,,,,,,,,,,,,,,mch,002,2019_Sep_25_1321,StressSession,3.1.3,59.99170674664615,
30,green,440,1.0,,,,,,0,29,29,29,,,,,,,,,,,,,,,,,,,,,mch,002,2019_Sep_25_1321,StressSession,3.1.3,59.99170674664615,
31,green,440,1.0,,,,,,0,30,30,30,,,,,,,,,,,,,,,,,,,,,mch,002,2019_Sep_25_1321,StressSession,3.1.3,59.99170674664615,
32,green,440,1.0,,,,,,0,31,31,31,,,,,,,,,,,,,,,,,,,,,mch,002,2019_Sep_25_1321,StressSession,3.1.3,59.99170674664615,
33,green,440,1.0,,,,,,0,32,32,32,,,,,,,,,,,,,,,,,,,,,mch,002,2019_Sep_25_1321,StressSession,3.1.3,59.99170674664615,
34,green,440,1.0,,,,,,0,33,33,33,,,,,,,,,,,,,,,,,,,,,mch,002,2019_Sep_25_1321,StressSession,3.1.3,59.99170674664615,
35,green,440,1.0,,,,,,0,34,34,34,,,,,,,,,,,,,,,,,,,,,mch,002,2019_Sep_25_1321,StressSession,3.1.3,59.99170674664615,
36,green,440,1.0,,,,,,0,35,35,35,,,,,,,,,,,,,,,,,,,,,mch,002,2019_Sep_25_1321,StressSession,3.1.3,59.99170674664615,
37,green,440,1.0,,,,,,0,36,36,36,,,,,,,,,,,,,,,,,,,,,mch,002,2019_Sep_25_1321,StressSession,3.1.3,59.99170674664615,
38,green,440,1.0,,,,,,0,37,37,37,,,,,,,,,,,,,,,,,,,,,mch,002,2019_Sep_25_1321,StressSession,3.1.3,59.99170674664615,
39,green,440,1.0,,,,,,0,38,38,38,,,,,,,,,,,,,,,,,,,,,mch,002,2019_Sep_25_1321,StressSession,3.1.3,59.99170674664615,
40,green,440,1.0,,,,,,0,39,39,39,,,,,,,,,,,,,,,,,,,,,mch,002,2019_Sep_25_1321,StressSession,3.1.3,59.99170674664615,
41,green,440,1.0,,,,,,0,40,40,40,,,,,,,,,,,,,,,,,,,,,mch,002,2019_Sep_25_1321,StressSession,3.1.3,59.99170674664615,
42,green,440,1.0,,,,,,0,41,41,41,,,,,,,,,,,,,,,,,,,,,mch,002,2019_Sep_25_1321,StressSession,3.1.3,59.99170674664615,
43,green,440,1.0,,,,,,0,42,42,42,,,,,,,,,,,,,,,,,,,,,mch,002,2019_Sep_25_1321,StressSession,3.1.3,59.99170674664615,
44,green,440,1.0,,,,,,0,43,43,43,,,,,,,,,,,,,,,,,,,,,mch,002,2019_Sep_25_1321,StressSession,3.1.3,59.99170674664615,
45,green,440,1.0,,,,,,0,44,44,44,,,,,,,,,,,,,,,,,,,,,mch,002,2019_Sep_25_1321,StressSession,3.1.3,59.99170674664615,
46,green,440,1.0,,,,,,0,45,45,45,,,,,,,,,,,,,,,,,,,,,mch,002,2019_Sep_25_1321,StressSession,3.1.3,59.99170674664615,
47,green,440,1.0,,,,,,0,46,46,46,,,,,,,,,,,,,,,,,,,,,mch,002,2019_Sep_25_1321,StressSession,3.1.3,59.99170674664615,
48,green,440,1.0,,,,,,0,47,47,47,,,,,,,,,,,,,,,,,,,,,mch,002,2019_Sep_25_1321,StressSession,3.1.3,59.99170674664615,
49,green,440,1.0,,,,,,0,48,48,48,,,,,,,,,,,,,,,,,,,,,mch,002,2019_Sep_25_1321,StressSession,3.1.3,59.99170674664615,
50,green,440,1.0,,,,,,0,49,49,49,,,,,,,,,,,,,,,,,,,,,mch,002,2019_Sep_25_1321,StressSession,3.1.3,59.99170674664615,
51,green,440,1.0,,,,,,0,50,50,50,,,,,,,,,,,,,,,,,,,,,mch,002,2019_Sep_25_1321,StressSession,3.1.3,59.99170674664615,
52,green,440,1.0,,,,,,0,51,51,51,,,,,,,,,,,,,,,,,,,,,mch,002,2019_Sep_25_1321,StressSession,3.1.3,59.99170674664615,
53,green,440,1.0,,,,,,0,52,52,52,,,,,,,,,,,,,,,,,,,,,mch,002,2019_Sep_25_1321,StressSession,3.1.3,59.99170674664615,
54,green,440,1.0,,,,,,0,53,53,53,,,,,,,,,,,,,,,,,,,,,mch,002,2019_Sep_25_1321,StressSession,3.1.3,59.99170674664615,
55,green,440,1.0,,,,,,0,54,54,54,,,,,,,,,,,,,,,,,,,,,mch,002,2019_Sep_25_1321,StressSession,3.1.3,59.99170674664615,
56,green,440,1.0,,,,,,0,55,55,55,,,,,,,,,,,,,,,,,,,,,mch,002,2019_Sep_25_1321,StressSession,3.1.3,59.99170674664615,
57,green,440,1.0,,,,,,0,56,56,56,,,,,,,,,,,,,,,,,,,,,mch,002,2019_Sep_25_1321,StressSession,3.1.3,59.99170674664615,
58,green,440,1.0,,,,,,0,57,57,57,,,,,,,,,,,,,,,,,,,,,mch,002,2019_Sep_25_1321,StressSession,3.1.3,59.99170674664615,
59,green,440,1.0,,,,,,0,58,58,58,,,,,,,,,,,,,,,,,,,,,mch,002,2019_Sep_25_1321,StressSession,3.1.3,59.99170674664615,
60,green,440,1.0,,,,,,0,59,59,59,,,,,,,,,,,,,,,,,,,,,mch,002,2019_Sep_25_1321,StressSession,3.1.3,59.99170674664615,
61,green,440,1.0,,,,,,0,60,60,60,,,,,,,,,,,,,,,,,,,,,mch,002,2019_Sep_25_1321,StressSession,3.1.3,59.99170674664615,
62,green,440,1.0,,,,,,0,61,61,61,,,,,,,,,,,,,,,,,,,,,mch,002,2019_Sep_25_1321,StressSession,3.1.3,59.99170674664615,
63,green,440,1.0,,,,,,0,62,62,62,,,,,,,,,,,,,,,,,,,,,mch,002,2019_Sep_25_1321,StressSession,3.1.3,59.99170674664615,
64,green,440,1.0,,,,,,0,63,63,63,,,,,,,,,,,,,,,,,,,,,mch,002,2019_Sep_25_1321,StressSession,3.1.3,59.99170674664615,
65,green,440,1.0,,,,,,0,64,64,64,,,,,,,,,,,,,,,,,,,,,mch,002,2019_Sep_25_1321,StressSession,3.1.3,59.99170674664615,
66,green,440,1.0,,,,,,0,65,65,65,,,,,,,,,,,,,,,,,,,,,mch,002,2019_Sep_25_1321,StressSession,3.1.3,59.99170674664615,
67,green,440,1.0,,,,,,0,66,66,66,,,,,,,,,,,,,,,,,,,,,mch,002,2019_Sep_25_1321,StressSession,3.1.3,59.99170674664615,
68,green,440,1.0,,,,,,0,67,67,67,,,,,,,,,,,,,,,,,,,,,mch,002,2019_Sep_25_1321,StressSession,3.1.3,59.99170674664615,
69,green,440,1.0,,,,,,0,68,68,68,,,,,,,,,,,,,,,,,,,,,mch,002,2019_Sep_25_1321,StressSession,3.1.3,59.99170674664615,
70,green,440,1.0,,,,,,0,69,69,69,,,,,,,,,,,,,,,,,,,,,mch,002,2019_Sep_25_1321,StressSession,3.1.3,59.99170674664615,
71,green,440,1.0,,,,,,0,70,70,70,,,,,,,,,,,,,,,,,,,,,mch,002,2019_Sep_25_1321,StressSession,3.1.3,59.99170674664615,
72,green,440,1.0,,,,,,0,71,71,71,,,,,,,,,,,,,,,,,,,,,mch,002,2019_Sep_25_1321,StressSession,3.1.3,59.99170674664615,
73,green,440,1.0,,,,,,0,72,72,72,,,,,,,,,,,,,,,,,,,,,mch,002,2019_Sep_25_1321,StressSession,3.1.3,59.99170674664615,
74,green,440,1.0,,,,,,0,73,73,73,,,,,,,,,,,,,,,,,,,,,mch,002,2019_Sep_25_1321,StressSession,3.1.3,59.99170674664615,
75,green,440,1.0,,,,,,0,74,74,74,,,,,,,,,,,,,,,,,,,,,mch,002,2019_Sep_25_1321,StressSession,3.1.3,59.99170674664615,
76,green,440,1.0,,,,,,0,75,75,75,,,,,,,,,,,,,,,,,,,,,mch,002,2019_Sep_25_1321,StressSession,3.1.3,59.99170674664615,
77,green,440,1.0,,,,,,0,76,76,76,,,,,,,,,,,,,,,,,,,,,mch,002,2019_Sep_25_1321,StressSession,3.1.3,59.99170674664615,
78,green,440,1.0,,,,,,0,77,77,77,,,,,,,,,,,,,,,,,,,,,mch,002,2019_Sep_25_1321,StressSession,3.1.3,59.99170674664615,
79,green,440,1.0,,,,,,0,78,78,78,,,,,,,,,,,,,,,,,,,,,mch,002,2019_Sep_25_1321,StressSession,3.1.3,59.99170674664615,
80,green,440,1.0,,,,,,0,79,79,79,,,,,,,,,,,,,,,,,,,,,mch,002,2019_Sep_25_1321,StressSession,3.1.3,59.99170674664615,
81,green,440,1.0,,,,,,0,80,80,80,,,,,,,,,,,,,,,,,,,,,mch,002,2019_Sep_25_1321,StressSession,3.1.3,59.99170674664615,
82,green,440,1.0,,,,,,0,81,81,81,,,,,,,,,,,,,,,,,,,,,mch,002,2019_Sep_25_1321,StressSession,3.1.3,59.99170674664615,
83,green,440,1.0,,,,,,0,82,82,82,,,,,,,,,,,,,,,,,,,,,mch,002,2019_Sep_25_1321,StressSession,3.1.3,59.99170674664615,
84,green,440,1.0,,,,,,0,83,83,83,,,,,,,,,,,,,,,,,,,,,mch,002,2019_Sep_25_1321,StressSession,3.1.3,59.99170674664615,
85,green,440,1.0,,,,,,0,84,84,84,,,,,,,,,,,,,,,,,,,,,mch,002,2019_Sep_25_1321,StressSession,3.1.3,59.99170674664615,
86,green,440,1.0,,,,,,0,85,85,85,,,,,,,,,,,,,,,,,,,,,mch,002,2019_Sep_25_1321,StressSession,3.1.3,59.99170674664615,
87,green,440,1.0,,,,,,0,86,86,86,,,,,,,,,,,,,,,,,,,,,mch,002,2019_Sep_25_1321,StressSession,3.1.3,59.99170674664615,
88,green,440,1.0,,,,,,0,87,87,87,,,,,,,,,,,,,,,,,,,,,mch,002,2019_Sep_25_1321,StressSession,3.1.3,59.99170674664615,
89,green,440,1.0,,,,,,0,88,88,88,,,,,,,,,,,,,,,,,,,,,mch,002,2019_Sep_25_1321,StressSession,3.1.3,59.99170674664615,
90,green,440,1.0,,,,,,0,89,89,89,,,,,,,,,,,,,,,,,,,,,mch,002,2019_Sep_25_1321,StressSession,3.1.3,59.99170674664615,
91,green,440,1.0,,,,,,0,90,90,90,,,,,,,,,,,,,,,,,,,,,mch,002,2019_Sep_25_1321,StressSession,3.1.3,59.99170674664615,
92,green,440,1.0,,,,,,0,91,91,91,,,,,,,,,,,,,,,,,,,,,mch,002,2019_Sep_25_1321,StressSession,3.1.3,59.99170674664615,
93,green,440,1.0,,,,,,0,92,92,92,,,,,,,,,,,,,,,,,,,,,mch,002,2019_Sep_25_1321,StressSession,3.1.3,59.99170674664615,
94,green,440,1.0,,,,,,0,93,93,93,,,,,,,,,,,,,,,,,,,,,mch,002,2019_Sep_25_1321,StressSession,3.1.3,59.99170674664615,
95,green,440,1.0,,,,,,0,94,94,94,,,,,,,,,,,,,,,,,,,,,mch,002,2019_Sep_25_1321,StressSession,3.1.3,59.99170674664615,
96,green,440,1.0,,,,,,0,95,95,95,,,,,,,,,,,,,,,,,,,,,mch,002,2019_Sep_25_1321,StressSession,3.1.3,59.99170674664615,
97,green,440,1.0,,,,,,0,96,96,96,,,,,,,,,,,,,,,,,,,,,mch,002,2019_Sep_25_1321,StressSession,3.1.3,59.99170674664615,
98,green,440,1.0,,,,,,0,97,97,97,,,,,,,,,,,,,,,,,,,,,mch,002,2019_Sep_25_1321,StressSession,3.1.3,59.99170674664615,
99,green,440,1.0,,,,,,0,98,98,98,,,,,,,,,,,,,,,,,,,,,mch,002,2019_Sep_25_1321,StressSession,3.1.3,59.99170674664615,
100,green,440,1.0,,,,,,0,99,99,99,,,,,,,,,,,,,,,,,,,,,mch,002,2019_Sep_25_1321,StressSession,3.1.3,59.99170674664615,
101,green,440,1.0,,,,,,0,100,100,100,,,,,,,,,,,,,,,,,,,,,mch,002,2019_Sep_25_1321,StressSession,3.1.3,59.99170674664615,
102,green,440,1.0,,,,,,0,101,101,101,,,,,,,,,,,,,,,,,,,,,mch,002,2019_Sep_25_1321,StressSession,3.1.3,59.99170674664615,
103,green,440,1.0,,,,,,0,102,102,102,,,,,,,,,,,,,,,,,,,,,mch,002,2019_Sep_25_1321,StressSession,3.1.3,59.99170674664615,
104,green,440,1.0,,,,,,0,103,103,103,,,,,,,,,,,,,,,,,,,,,mch,002,2019_Sep_25_1321,StressSession,3.1.3,59.99170674664615,
105,green,440,1.0,,,,,,0,104,104,104,,,,,,,,,,,,,,,,,,,,,mch,002,2019_Sep_25_1321,StressSession,3.1.3,59.99170674664615,
106,green,440,1.0,,,,,,0,105,105,105,,,,,,,,,,,,,,,,,,,,,mch,002,2019_Sep_25_1321,StressSession,3.1.3,59.99170674664615,
107,green,440,1.0,,,,,,0,106,106,106,,,,,,,,,,,,,,,,,,,,,mch,002,2019_Sep_25_1321,StressSession,3.1.3,59.99170674664615,
108,green,440,1.0,,,,,,0,107,107,107,,,,,,,,,,,,,,,,,,,,,mch,002,2019_Sep_25_1321,StressSession,3.1.3,59.99170674664615,
109,green,440,1.0,,,,,,0,108,108,108,,,,,,,,,,,,,,,,,,,,,mch,002,2019_Sep_25_1321,StressSession,3.1.3,59.99170674664615,
110,green,440,1.0,,,,,,0,109,109,109,,,,,,,,,,,,,,,,,,,,,mch,002,2019_Sep_25_1321,StressSession,3.1.3,59.99170674664615,
111,green,440,1.0,,,,,,0,110,110,110,,,,,,,,,,,,,,,,,,,,,mch,002,2019_Sep_25_1321,StressSession,3.1.3,59.99170674664615,
112,green,440,1.0,,,,,,0,111,111,111,,,,,,,,,,,,,,,,,,,,,mch,002,2019_Sep_25_1321,StressSession,3.1.3,59.99170674664615,
113,green,440,1.0,,,,,,0,112,112,112,,,,,,,,,,,,,,,,,,,,,mch,002,2019_Sep_25_1321,StressSession,3.1.3,59.99170674664615,
114,green,440,1.0,,,,,,0,113,113,113,,,,,,,,,,,,,,,,,,,,,mch,002,2019_Sep_25_1321,StressSession,3.1.3,59.99170674664615,
115,green,440,1.0,,,,,,0,114,114,114,,,,,,,,,,,,,,,,,,,,,mch,002,2019_Sep_25_1321,StressSession,3.1.3,59.99170674664615,
116,green,440,1.0,,,,,,0,115,115,115,,,,,,,,,,,,,,,,,,,,,mch,002,2019_Sep_25_1321,StressSession,3.1.3,59.99170674664615,
117,green,440,1.0,,,,,,0,116,116,116,,,,,,,,,,,,,,,,,,,,,mch,002,2019_Sep_25_1321,StressSession,3.1.3,59.99170674664615,
118,green,440,1.0,,,,,,0,117,117,117,,,,,,,,,,,,,,,,,,,,,mch,002,2019_Sep_25_1321,StressSession,3.1.3,59.99170674664615,
119,green,440,1.0,,,,,,0,118,118,118,,,,,,,,,,,,,,,,,,,,,mch,002,2019_Sep_25_1321,StressSession,3.1.3,59.99170674664615,
120,green,440,1.0,,,,,,0,119,119,119,,,,,,,,,,,,,,,,,,,,,mch,002,2019_Sep_25_1321,StressSession,3.1.3,59.99170674664615,
121,green,440,1.0,,,,,,0,120,120,120,,,,,,,,,,,,,,,,,,,,,mch,002,2019_Sep_25_1321,StressSession,3.1.3,59.99170674664615,
122,green,440,1.0,,,,,,0,121,121,121,,,,,,,,,,,,,,,,,,,,,mch,002,2019_Sep_25_1321,StressSession,3.1.3,59.99170674664615,
123,green,440,1.0,,,,,,0,122,122,122,,,,,,,,,,,,,,,,,,,,,mch,002,2019_Sep_25_1321,StressSession,3.1.3,59.99170674664615,
124,green,440,1.0,,,,,,0,123,123,123,,,,,,,,,,,,,,,,,,,,,mch,002,2019_Sep_25_1321,StressSession,3.1.3,59.99170674664615,
125,green,440,1.0,,,,,,0,124,124,124,,,,,,,,,,,,,,,,,,,,,mch,002,2019_Sep_25_1321,StressSession,3.1.3,59.99170674664615,
126,green,440,1.0,,,,,,0,125,125,125,,,,,,,,,,,,,,,,,,,,,mch,002,2019_Sep_25_1321,StressSession,3.1.3,59.99170674664615,
127,green,440,1.0,,,,,,0,126,126,126,,,,,,,,,,,,,,,,,,,,,mch,002,2019_Sep_25_1321,StressSession,3.1.3,59.99170674664615,
128,green,440,1.0,,,,,,0,127,127,127,,,,,,,,,,,,,,,,,,,,,mch,002,2019_Sep_25_1321,StressSession,3.1.3,59.99170674664615,
129,green,440,1.0,,,,,,0,128,128,128,,,,,,,,,,,,,,,,,,,,,mch,002,2019_Sep_25_1321,StressSession,3.1.3,59.99170674664615,
130,green,440,1.0,,,,,,0,129,129,129,,,,,,,,,,,,,,,,,,,,,mch,002,2019_Sep_25_1321,StressSession,3.1.3,59.99170674664615,
131,green,440,1.0,,,,,,0,130,130,130,,,,,,,,,,,,,,,,,,,,,mch,002,2019_Sep_25_1321,StressSession,3.1.3,59.99170674664615,
132,green,440,1.0,,,,,,0,131,131,131,,,,,,,,,,,,,,,,,,,,,mch,002,2019_Sep_25_1321,StressSession,3.1.3,59.99170674664615,
133,green,440,1.0,,,,,,0,132,132,132,,,,,,,,,,,,,,,,,,,,,mch,002,2019_Sep_25_1321,StressSession,3.1.3,59.99170674664615,
134,green,440,1.0,,,,,,0,133,133,133,,,,,,,,,,,,,,,,,,,,,mch,002,2019_Sep_25_1321,StressSession,3.1.3,59.99170674664615,
135,green,440,1.0,,,,,,0,134,134,134,,,,,,,,,,,,,,,,,,,,,mch,002,2019_Sep_25_1321,StressSession,3.1.3,59.99170674664615,
136,green,440,1.0,,,,,,0,135,135,135,,,,,,,,,,,,,,,,,,,,,mch,002,2019_Sep_25_1321,StressSession,3.1.3,59.99170674664615,
137,green,440,1.0,,,,,,0,136,136,136,,,,,,,,,,,,,,,,,,,,,mch,002,2019_Sep_25_1321,StressSession,3.1.3,59.99170674664615,
138,green,440,1.0,,,,,,0,137,137,137,,,,,,,,,,,,,,,,,,,,,mch,002,2019_Sep_25_1321,StressSession,3.1.3,59.99170674664615,
139,green,440,1.0,,,,,,0,138,138,138,,,,,,,,,,,,,,,,,,,,,mch,002,2019_Sep_25_1321,StressSession,3.1.3,59.99170674664615,
140,green,440,1.0,,,,,,0,139,139,139,,,,,,,,,,,,,,,,,,,,,mch,002,2019_Sep_25_1321,StressSession,3.1.3,59.99170674664615,
141,green,440,1.0,,,,,,0,140,140,140,,,,,,,,,,,,,,,,,,,,,mch,002,2019_Sep_25_1321,StressSession,3.1.3,59.99170674664615,
142,green,440,1.0,,,,,,0,141,141,141,,,,,,,,,,,,,,,,,,,,,mch,002,2019_Sep_25_1321,StressSession,3.1.3,59.99170674664615,
143,green,440,1.0,,,,,,0,142,142,142,,,,,,,,,,,,,,,,,,,,,mch,002,2019_Sep_25_1321,StressSession,3.1.3,59.99170674664615,
144,green,440,1.0,,,,,,0,143,143,143,,,,,,,,,,,,,,,,,,,,,mch,002,2019_Sep_25_1321,StressSession,3.1.3,59.99170674664615,
145,green,440,1.0,,,,,,0,144,144,144,,,,,,,,,,,,,,,,,,,,,mch,002,2019_Sep_25_1321,StressSession,3.1.3,59.99170674664615,
146,green,440,1.0,,,,,,0,145,145,145,,,,,,,,,,,,,,,,,,,,,mch,002,2019_Sep_25_1321,StressSession,3.1.3,59.99170674664615,
147,green,440,1.0,,,,,,0,146,146,146,,,,,,,,,,,,,,,,,,,,,mch,002,2019_Sep_25_1321,StressSession,3.1.3,59.99170674664615,
148,green,440,1.0,,,,,,0,147,147,147,,,,,,,,,,,,,,,,,,,,,mch,002,2019_Sep_25_1321,StressSession,3.1.3,59.99170674664615,
149,green,440,1.0,,,,,,0,148,148,148,,,,,,,,,,,,,,,,,,,,,mch,002,2019_Sep_25_1321,StressSession,3.1.3,59.99170674664615,
150,green,440,1.0,,,,,,0,149,149,149,,,,,,,,,,,,,,,,,,,,,mch,002,2019_Sep_25_1321,StressSession,3.1.3,59.99170674664615,
151,green,440,1.0,,,,,,0,150,150,150,,,,,,,,,,,,,,,,,,,,,mch,002,2019_Sep_25_1321,StressSession,3.1.3,59.99170674664615,
152,green,440,1.0,,,,,,0,151,151,151,,,,,,,,,,,,,,,,,,,,,mch,002,2019_Sep_25_1321,StressSession,3.1.3,59.99170674664615,
153,green,440,1.0,,,,,,0,152,152,152,,,,,,,,,,,,,,,,,,,,,mch,002,2019_Sep_25_1321,StressSession,3.1.3,59.99170674664615,
154,green,440,1.0,,,,,,0,153,153,153,,,,,,,,,,,,,,,,,,,,,mch,002,2019_Sep_25_1321,StressSession,3.1.3,59.99170674664615,
155,green,440,1.0,,,,,,0,154,154,154,,,,,,,,,,,,,,,,,,,,,mch,002,2019_Sep_25_1321,StressSession,3.1.3,59.99170674664615,
156,green,440,1.0,,,,,,0,155,155,155,,,,,,,,,,,,,,,,,,,,,mch,002,2019_Sep_25_1321,StressSession,3.1.3,59.99170674664615,
157,green,440,1.0,,,,,,0,156,156,156,,,,,,,,,,,,,,,,,,,,,mch,002,2019_Sep_25_1321,StressSession,3.1.3,59.99170674664615,
158,green,440,1.0,,,,,,0,157,157,157,,,,,,,,,,,,,,,,,,,,,mch,002,2019_Sep_25_1321,StressSession,3.1.3,59.99170674664615,
159,green,440,1.0,,,,,,0,158,158,158,,,,,,,,,,,,,,,,,,,,,mch,002,2019_Sep_25_1321,StressSession,3.1.3,59.99170674664615,
160,green,440,1.0,,,,,,0,159,159,159,,,,,,,,,,,,,,,,,,,,,mch,002,2019_Sep_25_1321,StressSession,3.1.3,59.99170674664615,
161,green,440,1.0,,,,,,0,160,160,160,,,,,,,,,,,,,,,,,,,,,mch,002,2019_Sep_25_1321,StressSession,3.1.3,59.99170674664615,
162,green,440,1.0,,,,,,0,161,161,161,,,,,,,,,,,,,,,,,,,,,mch,002,2019_Sep_25_1321,StressSession,3.1.3,59.99170674664615,
163,green,440,1.0,,,,,,0,162,162,162,,,,,,,,,,,,,,,,,,,,,mch,002,2019_Sep_25_1321,StressSession,3.1.3,59.99170674664615,
164,green,440,1.0,,,,,,0,163,163,163,,,,,,,,,,,,,,,,,,,,,mch,002,2019_Sep_25_1321,StressSession,3.1.3,59.99170674664615,
165,green,440,1.0,,,,,,0,164,164,164,,,,,,,,,,,,,,,,,,,,,mch,002,2019_Sep_25_1321,StressSession,3.1.3,59.99170674664615,
166,green,440,1.0,,,,,,0,165,165,165,,,,,,,,,,,,,,,,,,,,,mch,002,2019_Sep_25_1321,StressSession,3.1.3,59.99170674664615,
167,green,440,1.0,,,,,,0,166,166,166,,,,,,,,,,,,,,,,,,,,,mch,002,2019_Sep_25_1321,StressSession,3.1.3,59.99170674664615,
168,green,440,1.0,,,,,,0,167,167,167,,,,,,,,,,,,,,,,,,,,,mch,002,2019_Sep_25_1321,StressSession,3.1.3,59.99170674664615,
169,green,440,1.0,,,,,,0,168,168,168,,,,,,,,,,,,,,,,,,,,,mch,002,2019_Sep_25_1321,StressSession,3.1.3,59.99170674664615,
170,green,440,1.0,,,,,,0,169,169,169,,,,,,,,,,,,,,,,,,,,,mch,002,2019_Sep_25_1321,StressSession,3.1.3,59.99170674664615,
171,green,440,1.0,,,,,,0,170,170,170,,,,,,,,,,,,,,,,,,,,,mch,002,2019_Sep_25_1321,StressSession,3.1.3,59.99170674664615,
172,green,440,1.0,,,,,,0,171,171,171,,,,,,,,,,,,,,,,,,,,,mch,002,2019_Sep_25_1321,StressSession,3.1.3,59.99170674664615,
173,green,440,1.0,,,,,,0,172,172,172,,,,,,,,,,,,,,,,,,,,,mch,002,2019_Sep_25_1321,StressSession,3.1.3,59.99170674664615,
174,green,440,1.0,,,,,,0,173,173,173,,,,,,,,,,,,,,,,,,,,,mch,002,2019_Sep_25_1321,StressSession,3.1.3,59.99170674664615,
175,green,440,1.0,,,,,,0,174,174,174,,,,,,,,,,,,,,,,,,,,,mch,002,2019_Sep_25_1321,StressSession,3.1.3,59.99170674664615,
176,green,440,1.0,,,,,,0,175,175,175,,,,,,,,,,,,,,,,,,,,,mch,002,2019_Sep_25_1321,StressSession,3.1.3,59.99170674664615,
177,green,440,1.0,,,,,,0,176,176,176,,,,,,,,,,,,,,,,,,,,,mch,002,2019_Sep_25_1321,StressSession,3.1.3,59.99170674664615,
178,green,440,1.0,,,,,,0,177,177,177,,,,,,,,,,,,,,,,,,,,,mch,002,2019_Sep_25_1321,StressSession,3.1.3,59.99170674664615,
179,green,440,1.0,,,,,,0,178,178,178,,,,,,,,,,,,,,,,,,,,,mch,002,2019_Sep_25_1321,StressSession,3.1.3,59.99170674664615,
180,yellow,880,0.5,,,,,,0,179,179,179,,,,,,,,,,,,,,,,,,,,,mch,002,2019_Sep_25_1321,StressSession,3.1.3,59.99170674664615,
181,yellow,880,0.5,,,,,,0,180,180,180,,,,,,,,,,,,,,,,,,,,,mch,002,2019_Sep_25_1321,StressSession,3.1.3,59.99170674664615,
182,yellow,880,0.5,,,,,,0,181,181,181,,,,,,,,,,,,,,,,,,,,,mch,002,2019_Sep_25_1321,StressSession,3.1.3,59.99170674664615,
183,yellow,880,0.5,,,,,,0,182,182,182,,,,,,,,,,,,,,,,,,,,,mch,002,2019_Sep_25_1321,StressSession,3.1.3,59.99170674664615,
184,yellow,880,0.5,,,,,,0,183,183,183,,,,,,,,,,,,,,,,,,,,,mch,002,2019_Sep_25_1321,StressSession,3.1.3,59.99170674664615,
185,yellow,880,0.5,,,,,,0,184,184,184,,,,,,,,,,,,,,,,,,,,,mch,002,2019_Sep_25_1321,StressSession,3.1.3,59.99170674664615,
186,yellow,880,0.5,,,,,,0,185,185,185,,,,,,,,,,,,,,,,,,,,,mch,002,2019_Sep_25_1321,StressSession,3.1.3,59.99170674664615,
187,yellow,880,0.5,,,,,,0,186,186,186,,,,,,,,,,,,,,,,,,,,,mch,002,2019_Sep_25_1321,StressSession,3.1.3,59.99170674664615,
188,yellow,880,0.5,,,,,,0,187,187,187,,,,,,,,,,,,,,,,,,,,,mch,002,2019_Sep_25_1321,StressSession,3.1.3,59.99170674664615,
189,yellow,880,0.5,,,,,,0,188,188,188,,,,,,,,,,,,,,,,,,,,,mch,002,2019_Sep_25_1321,StressSession,3.1.3,59.99170674664615,
190,yellow,880,0.5,,,,,,0,189,189,189,,,,,,,,,,,,,,,,,,,,,mch,002,2019_Sep_25_1321,StressSession,3.1.3,59.99170674664615,
191,yellow,880,0.5,,,,,,0,190,190,190,,,,,,,,,,,,,,,,,,,,,mch,002,2019_Sep_25_1321,StressSession,3.1.3,59.99170674664615,
192,yellow,880,0.5,,,,,,0,191,191,191,,,,,,,,,,,,,,,,,,,,,mch,002,2019_Sep_25_1321,StressSession,3.1.3,59.99170674664615,
193,yellow,880,0.5,,,,,,0,192,192,192,,,,,,,,,,,,,,,,,,,,,mch,002,2019_Sep_25_1321,StressSession,3.1.3,59.99170674664615,
194,yellow,880,0.5,,,,,,0,193,193,193,,,,,,,,,,,,,,,,,,,,,mch,002,2019_Sep_25_1321,StressSession,3.1.3,59.99170674664615,
195,yellow,880,0.5,,,,,,0,194,194,194,,,,,,,,,,,,,,,,,,,,,mch,002,2019_Sep_25_1321,StressSession,3.1.3,59.99170674664615,
196,yellow,880,0.5,,,,,,0,195,195,195,,,,,,,,,,,,,,,,,,,,,mch,002,2019_Sep_25_1321,StressSession,3.1.3,59.99170674664615,
197,yellow,880,0.5,,,,,,0,196,196,196,,,,,,,,,,,,,,,,,,,,,mch,002,2019_Sep_25_1321,StressSession,3.1.3,59.99170674664615,
198,yellow,880,0.5,,,,,,0,197,197,197,,,,,,,,,,,,,,,,,,,,,mch,002,2019_Sep_25_1321,StressSession,3.1.3,59.99170674664615,
199,yellow,880,0.5,,,,,,0,198,198,198,,,,,,,,,,,,,,,,,,,,,mch,002,2019_Sep_25_1321,StressSession,3.1.3,59.99170674664615,
200,yellow,880,0.5,,,,,,0,199,199,199,,,,,,,,,,,,,,,,,,,,,mch,002,2019_Sep_25_1321,StressSession,3.1.3,59.99170674664615,
201,yellow,880,0.5,,,,,,0,200,200,200,,,,,,,,,,,,,,,,,,,,,mch,002,2019_Sep_25_1321,StressSession,3.1.3,59.99170674664615,
202,yellow,880,0.5,,,,,,0,201,201,201,,,,,,,,,,,,,,,,,,,,,mch,002,2019_Sep_25_1321,StressSession,3.1.3,59.99170674664615,
203,yellow,880,0.5,,,,,,0,202,202,202,,,,,,,,,,,,,,,,,,,,,mch,002,2019_Sep_25_1321,StressSession,3.1.3,59.99170674664615,
204,yellow,880,0.5,,,,,,0,203,203,203,,,,,,,,,,,,,,,,,,,,,mch,002,2019_Sep_25_1321,StressSession,3.1.3,59.99170674664615,
205,yellow,880,0.5,,,,,,0,204,204,204,,,,,,,,,,,,,,,,,,,,,mch,002,2019_Sep_25_1321,StressSession,3.1.3,59.99170674664615,
206,yellow,880,0.5,,,,,,0,205,205,205,,,,,,,,,,,,,,,,,,,,,mch,002,2019_Sep_25_1321,StressSession,3.1.3,59.99170674664615,
207,yellow,880,0.5,,,,,,0,206,206,206,,,,,,,,,,,,,,,,,,,,,mch,002,2019_Sep_25_1321,StressSession,3.1.3,59.99170674664615,
208,yellow,880,0.5,,,,,,0,207,207,207,,,,,,,,,,,,,,,,,,,,,mch,002,2019_Sep_25_1321,StressSession,3.1.3,59.99170674664615,
209,yellow,880,0.5,,,,,,0,208,208,208,,,,,,,,,,,,,,,,,,,,,mch,002,2019_Sep_25_1321,StressSession,3.1.3,59.99170674664615,
210,yellow,880,0.5,,,,,,0,209,209,209,,,,,,,,,,,,,,,,,,,,,mch,002,2019_Sep_25_1321,StressSession,3.1.3,59.99170674664615,
211,yellow,880,0.5,,,,,,0,210,210,210,,,,,,,,,,,,,,,,,,,,,mch,002,2019_Sep_25_1321,StressSession,3.1.3,59.99170674664615,
212,yellow,880,0.5,,,,,,0,211,211,211,,,,,,,,,,,,,,,,,,,,,mch,002,2019_Sep_25_1321,StressSession,3.1.3,59.99170674664615,
213,yellow,880,0.5,,,,,,0,212,212,212,,,,,,,,,,,,,,,,,,,,,mch,002,2019_Sep_25_1321,StressSession,3.1.3,59.99170674664615,
214,yellow,880,0.5,,,,,,0,213,213,213,,,,,,,,,,,,,,,,,,,,,mch,002,2019_Sep_25_1321,StressSession,3.1.3,59.99170674664615,
215,yellow,880,0.5,,,,,,0,214,214,214,,,,,,,,,,,,,,,,,,,,,mch,002,2019_Sep_25_1321,StressSession,3.1.3,59.99170674664615,
216,yellow,880,0.5,,,,,,0,215,215,215,,,,,,,,,,,,,,,,,,,,,mch,002,2019_Sep_25_1321,StressSession,3.1.3,59.99170674664615,
217,yellow,880,0.5,,,,,,0,216,216,216,,,,,,,,,,,,,,,,,,,,,mch,002,2019_Sep_25_1321,StressSession,3.1.3,59.99170674664615,
218,yellow,880,0.5,,,,,,0,217,217,217,,,,,,,,,,,,,,,,,,,,,mch,002,2019_Sep_25_1321,StressSession,3.1.3,59.99170674664615,
219,yellow,880,0.5,,,,,,0,218,218,218,,,,,,,,,,,,,,,,,,,,,mch,002,2019_Sep_25_1321,StressSession,3.1.3,59.99170674664615,
220,yellow,880,0.5,,,,,,0,219,219,219,,,,,,,,,,,,,,,,,,,,,mch,002,2019_Sep_25_1321,StressSession,3.1.3,59.99170674664615,
221,yellow,880,0.5,,,,,,0,220,220,220,,,,,,,,,,,,,,,,,,,,,mch,002,2019_Sep_25_1321,StressSession,3.1.3,59.99170674664615,
222,yellow,880,0.5,,,,,,0,221,221,221,,,,,,,,,,,,,,,,,,,,,mch,002,2019_Sep_25_1321,StressSession,3.1.3,59.99170674664615,
223,yellow,880,0.5,,,,,,0,222,222,222,,,,,,,,,,,,,,,,,,,,,mch,002,2019_Sep_25_1321,StressSession,3.1.3,59.99170674664615,
224,yellow,880,0.5,,,,,,0,223,223,223,,,,,,,,,,,,,,,,,,,,,mch,002,2019_Sep_25_1321,StressSession,3.1.3,59.99170674664615,
225,yellow,880,0.5,,,,,,0,224,224,224,,,,,,,,,,,,,,,,,,,,,mch,002,2019_Sep_25_1321,StressSession,3.1.3,59.99170674664615,
226,yellow,880,0.5,,,,,,0,225,225,225,,,,,,,,,,,,,,,,,,,,,mch,002,2019_Sep_25_1321,StressSession,3.1.3,59.99170674664615,
227,yellow,880,0.5,,,,,,0,226,226,226,,,,,,,,,,,,,,,,,,,,,mch,002,2019_Sep_25_1321,StressSession,3.1.3,59.99170674664615,
228,yellow,880,0.5,,,,,,0,227,227,227,,,,,,,,,,,,,,,,,,,,,mch,002,2019_Sep_25_1321,StressSession,3.1.3,59.99170674664615,
229,yellow,880,0.5,,,,,,0,228,228,228,,,,,,,,,,,,,,,,,,,,,mch,002,2019_Sep_25_1321,StressSession,3.1.3,59.99170674664615,
230,yellow,880,0.5,,,,,,0,229,229,229,,,,,,,,,,,,,,,,,,,,,mch,002,2019_Sep_25_1321,StressSession,3.1.3,59.99170674664615,
231,yellow,880,0.5,,,,,,0,230,230,230,,,,,,,,,,,,,,,,,,,,,mch,002,2019_Sep_25_1321,StressSession,3.1.3,59.99170674664615,
232,yellow,880,0.5,,,,,,0,231,231,231,,,,,,,,,,,,,,,,,,,,,mch,002,2019_Sep_25_1321,StressSession,3.1.3,59.99170674664615,
233,yellow,880,0.5,,,,,,0,232,232,232,,,,,,,,,,,,,,,,,,,,,mch,002,2019_Sep_25_1321,StressSession,3.1.3,59.99170674664615,
234,yellow,880,0.5,,,,,,0,233,233,233,,,,,,,,,,,,,,,,,,,,,mch,002,2019_Sep_25_1321,StressSession,3.1.3,59.99170674664615,
235,yellow,880,0.5,,,,,,0,234,234,234,,,,,,,,,,,,,,,,,,,,,mch,002,2019_Sep_25_1321,StressSession,3.1.3,59.99170674664615,
236,yellow,880,0.5,,,,,,0,235,235,235,,,,,,,,,,,,,,,,,,,,,mch,002,2019_Sep_25_1321,StressSession,3.1.3,59.99170674664615,
237,yellow,880,0.5,,,,,,0,236,236,236,,,,,,,,,,,,,,,,,,,,,mch,002,2019_Sep_25_1321,StressSession,3.1.3,59.99170674664615,
238,yellow,880,0.5,,,,,,0,237,237,237,,,,,,,,,,,,,,,,,,,,,mch,002,2019_Sep_25_1321,StressSession,3.1.3,59.99170674664615,
239,yellow,880,0.5,,,,,,0,238,238,238,,,,,,,,,,,,,,,,,,,,,mch,002,2019_Sep_25_1321,StressSession,3.1.3,59.99170674664615,
240,red,1760,0.5,,,,,,0,239,239,239,,,,,,,,,,,,,,,,,,,,,mch,002,2019_Sep_25_1321,StressSession,3.1.3,59.99170674664615,
241,red,1760,0.5,,,,,,0,240,240,240,,,,,,,,,,,,,,,,,,,,,mch,002,2019_Sep_25_1321,StressSession,3.1.3,59.99170674664615,
242,red,1760,0.5,,,,,,0,241,241,241,,,,,,,,,,,,,,,,,,,,,mch,002,2019_Sep_25_1321,StressSession,3.1.3,59.99170674664615,
243,red,1760,0.5,,,,,,0,242,242,242,,,,,,,,,,,,,,,,,,,,,mch,002,2019_Sep_25_1321,StressSession,3.1.3,59.99170674664615,
244,red,1760,0.5,,,,,,0,243,243,243,,,,,,,,,,,,,,,,,,,,,mch,002,2019_Sep_25_1321,StressSession,3.1.3,59.99170674664615,
245,red,1760,0.5,,,,,,0,244,244,244,,,,,,,,,,,,,,,,,,,,,mch,002,2019_Sep_25_1321,StressSession,3.1.3,59.99170674664615,
246,red,1760,0.5,,,,,,0,245,245,245,,,,,,,,,,,,,,,,,,,,,mch,002,2019_Sep_25_1321,StressSession,3.1.3,59.99170674664615,
247,red,1760,0.5,,,,,,0,246,246,246,,,,,,,,,,,,,,,,,,,,,mch,002,2019_Sep_25_1321,StressSession,3.1.3,59.99170674664615,
248,red,1760,0.5,,,,,,0,247,247,247,,,,,,,,,,,,,,,,,,,,,mch,002,2019_Sep_25_1321,StressSession,3.1.3,59.99170674664615,
249,red,1760,0.5,,,,,,0,248,248,248,,,,,,,,,,,,,,,,,,,,,mch,002,2019_Sep_25_1321,StressSession,3.1.3,59.99170674664615,
250,red,1760,0.5,,,,,,0,249,249,249,,,,,,,,,,,,,,,,,,,,,mch,002,2019_Sep_25_1321,StressSession,3.1.3,59.99170674664615,
251,red,1760,0.5,,,,,,0,250,250,250,,,,,,,,,,,,,,,,,,,,,mch,002,2019_Sep_25_1321,StressSession,3.1.3,59.99170674664615,
252,red,1760,0.5,,,,,,0,251,251,251,,,,,,,,,,,,,,,,,,,,,mch,002,2019_Sep_25_1321,StressSession,3.1.3,59.99170674664615,
253,red,1760,0.5,,,,,,0,252,252,252,,,,,,,,,,,,,,,,,,,,,mch,002,2019_Sep_25_1321,StressSession,3.1.3,59.99170674664615,
254,red,1760,0.5,,,,,,0,253,253,253,,,,,,,,,,,,,,,,,,,,,mch,002,2019_Sep_25_1321,StressSession,3.1.3,59.99170674664615,
255,red,1760,0.5,,,,,,0,254,254,254,,,,,,,,,,,,,,,,,,,,,mch,002,2019_Sep_25_1321,StressSession,3.1.3,59.99170674664615,
256,red,1760,0.5,,,,,,0,255,255,255,,,,,,,,,,,,,,,,,,,,,mch,002,2019_Sep_25_1321,StressSession,3.1.3,59.99170674664615,
257,red,1760,0.5,,,,,,0,256,256,256,,,,,,,,,,,,,,,,,,,,,mch,002,2019_Sep_25_1321,StressSession,3.1.3,59.99170674664615,
258,red,1760,0.5,,,,,,0,257,257,257,,,,,,,,,,,,,,,,,,,,,mch,002,2019_Sep_25_1321,StressSession,3.1.3,59.99170674664615,
259,red,1760,0.5,,,,,,0,258,258,258,,,,,,,,,,,,,,,,,,,,,mch,002,2019_Sep_25_1321,StressSession,3.1.3,59.99170674664615,
260,red,1760,0.5,,,,,,0,259,259,259,,,,,,,,,,,,,,,,,,,,,mch,002,2019_Sep_25_1321,StressSession,3.1.3,59.99170674664615,
261,red,1760,0.5,,,,,,0,260,260,260,,,,,,,,,,,,,,,,,,,,,mch,002,2019_Sep_25_1321,StressSession,3.1.3,59.99170674664615,
262,red,1760,0.5,,,,,,0,261,261,261,,,,,,,,,,,,,,,,,,,,,mch,002,2019_Sep_25_1321,StressSession,3.1.3,59.99170674664615,
263,red,1760,0.5,,,,,,0,262,262,262,,,,,,,,,,,,,,,,,,,,,mch,002,2019_Sep_25_1321,StressSession,3.1.3,59.99170674664615,
264,red,1760,0.5,,,,,,0,263,263,263,,,,,,,,,,,,,,,,,,,,,mch,002,2019_Sep_25_1321,StressSession,3.1.3,59.99170674664615,
265,red,1760,0.5,,,,,,0,264,264,264,,,,,,,,,,,,,,,,,,,,,mch,002,2019_Sep_25_1321,StressSession,3.1.3,59.99170674664615,
266,red,1760,0.5,,,,,,0,265,265,265,,,,,,,,,,,,,,,,,,,,,mch,002,2019_Sep_25_1321,StressSession,3.1.3,59.99170674664615,
267,red,1760,0.5,,,,,,0,266,266,266,,,,,,,,,,,,,,,,,,,,,mch,002,2019_Sep_25_1321,StressSession,3.1.3,59.99170674664615,
268,red,1760,0.5,,,,,,0,267,267,267,,,,,,,,,,,,,,,,,,,,,mch,002,2019_Sep_25_1321,StressSession,3.1.3,59.99170674664615,
269,red,1760,0.5,,,,,,0,268,268,268,,,,,,,,,,,,,,,,,,,,,mch,002,2019_Sep_25_1321,StressSession,3.1.3,59.99170674664615,
270,red,1760,0.5,,,,,,0,269,269,269,,,,,,,,,,,,,,,,,,,,,mch,002,2019_Sep_25_1321,StressSession,3.1.3,59.99170674664615,
271,red,1760,0.5,,,,,,0,270,270,270,,,,,,,,,,,,,,,,,,,,,mch,002,2019_Sep_25_1321,StressSession,3.1.3,59.99170674664615,
272,red,1760,0.5,,,,,,0,271,271,271,,,,,,,,,,,,,,,,,,,,,mch,002,2019_Sep_25_1321,StressSession,3.1.3,59.99170674664615,
273,red,1760,0.5,,,,,,0,272,272,272,,,,,,,,,,,,,,,,,,,,,mch,002,2019_Sep_25_1321,StressSession,3.1.3,59.99170674664615,
274,red,1760,0.5,,,,,,0,273,273,273,,,,,,,,,,,,,,,,,,,,,mch,002,2019_Sep_25_1321,StressSession,3.1.3,59.99170674664615,
275,red,1760,0.5,,,,,,0,274,274,274,,,,,,,,,,,,,,,,,,,,,mch,002,2019_Sep_25_1321,StressSession,3.1.3,59.99170674664615,
276,red,1760,0.5,,,,,,0,275,275,275,,,,,,,,,,,,,,,,,,,,,mch,002,2019_Sep_25_1321,StressSession,3.1.3,59.99170674664615,
277,red,1760,0.5,,,,,,0,276,276,276,,,,,,,,,,,,,,,,,,,,,mch,002,2019_Sep_25_1321,StressSession,3.1.3,59.99170674664615,
278,red,1760,0.5,,,,,,0,277,277,277,,,,,,,,,,,,,,,,,,,,,mch,002,2019_Sep_25_1321,StressSession,3.1.3,59.99170674664615,
279,red,1760,0.5,,,,,,0,278,278,278,,,,,,,,,,,,,,,,,,,,,mch,002,2019_Sep_25_1321,StressSession,3.1.3,59.99170674664615,
280,red,1760,0.5,,,,,,0,279,279,279,,,,,,,,,,,,,,,,,,,,,mch,002,2019_Sep_25_1321,StressSession,3.1.3,59.99170674664615,
281,red,1760,0.5,,,,,,0,280,280,280,,,,,,,,,,,,,,,,,,,,,mch,002,2019_Sep_25_1321,StressSession,3.1.3,59.99170674664615,
282,red,1760,0.5,,,,,,0,281,281,281,,,,,,,,,,,,,,,,,,,,,mch,002,2019_Sep_25_1321,StressSession,3.1.3,59.99170674664615,
283,red,1760,0.5,,,,,,0,282,282,282,,,,,,,,,,,,,,,,,,,,,mch,002,2019_Sep_25_1321,StressSession,3.1.3,59.99170674664615,
284,red,1760,0.5,,,,,,0,283,283,283,,,,,,,,,,,,,,,,,,,,,mch,002,2019_Sep_25_1321,StressSession,3.1.3,59.99170674664615,
285,red,1760,0.5,,,,,,0,284,284,284,,,,,,,,,,,,,,,,,,,,,mch,002,2019_Sep_25_1321,StressSession,3.1.3,59.99170674664615,
286,red,1760,0.5,,,,,,0,285,285,285,,,,,,,,,,,,,,,,,,,,,mch,002,2019_Sep_25_1321,StressSession,3.1.3,59.99170674664615,
287,red,1760,0.5,,,,,,0,286,286,286,,,,,,,,,,,,,,,,,,,,,mch,002,2019_Sep_25_1321,StressSession,3.1.3,59.99170674664615,
288,red,1760,0.5,,,,,,0,287,287,287,,,,,,,,,,,,,,,,,,,,,mch,002,2019_Sep_25_1321,StressSession,3.1.3,59.99170674664615,
289,red,1760,0.5,,,,,,0,288,288,288,,,,,,,,,,,,,,,,,,,,,mch,002,2019_Sep_25_1321,StressSession,3.1.3,59.99170674664615,
290,red,1760,0.5,,,,,,0,289,289,289,,,,,,,,,,,,,,,,,,,,,mch,002,2019_Sep_25_1321,StressSession,3.1.3,59.99170674664615,
291,red,1760,0.5,,,,,,0,290,290,290,,,,,,,,,,,,,,,,,,,,,mch,002,2019_Sep_25_1321,StressSession,3.1.3,59.99170674664615,
292,red,1760,0.5,,,,,,0,291,291,291,,,,,,,,,,,,,,,,,,,,,mch,002,2019_Sep_25_1321,StressSession,3.1.3,59.99170674664615,
293,red,1760,0.5,,,,,,0,292,292,292,,,,,,,,,,,,,,,,,,,,,mch,002,2019_Sep_25_1321,StressSession,3.1.3,59.99170674664615,
294,red,1760,0.5,,,,,,0,293,293,293,,,,,,,,,,,,,,,,,,,,,mch,002,2019_Sep_25_1321,StressSession,3.1.3,59.99170674664615,
295,red,1760,0.5,,,,,,0,294,294,294,,,,,,,,,,,,,,,,,,,,,mch,002,2019_Sep_25_1321,StressSession,3.1.3,59.99170674664615,
296,red,1760,0.5,,,,,,0,295,295,295,,,,,,,,,,,,,,,,,,,,,mch,002,2019_Sep_25_1321,StressSession,3.1.3,59.99170674664615,
297,red,1760,0.5,,,,,,0,296,296,296,,,,,,,,,,,,,,,,,,,,,mch,002,2019_Sep_25_1321,StressSession,3.1.3,59.99170674664615,
298,red,1760,0.5,,,,,,0,297,297,297,,,,,,,,,,,,,,,,,,,,,mch,002,2019_Sep_25_1321,StressSession,3.1.3,59.99170674664615,
299,red,1760,0.5,,,,,,0,298,298,298,,,,,,,,,,,,,,,,,,,,,mch,002,2019_Sep_25_1321,StressSession,3.1.3,59.99170674664615,
300,red,1760,0.5,,,,,,0,299,299,299,,,,,,,,,,,,,,,,,,,,,mch,002,2019_Sep_25_1321,StressSession,3.1.3,59.99170674664615,
,,,,,,,,,,,,,,,,,,,2019-09-25_13:29:23,10,11.675,,,,,,,,,,,,mch,002,2019_Sep_25_1321,StressSession,3.1.3,59.99170674664615,
,,,,,,,,,,,,,,,,,,,,,,5,11.622,,,,,,,,,,mch,002,2019_Sep_25_1321,StressSession,3.1.3,59.99170674664615,
,,,,orange,black,black,orange,left,,,,,0,0,0,173,,,,,,,,2019-09-25_13:31:40,left,1.227712853333287,626.475909546667,None,,,,,mch,002,2019_Sep_25_1321,StressSession,3.1.3,59.99170674664615,
,,,,purple,orange,orange,purple,left,,,,,0,1,1,189,,,,,,,,,left,1.4296486399998685,628.250280960001,None,,,,,mch,002,2019_Sep_25_1321,StressSession,3.1.3,59.99170674664615,
,,,,green,brown,brown,green,left,,,,,0,2,2,135,,,,,,,,,left,1.8373858133345493,630.2104217600008,None,,,,,mch,002,2019_Sep_25_1321,StressSession,3.1.3,59.99170674664615,
,,,,cyan,orange,orange,cyan,left,,,,,0,3,3,151,,,,,,,,,left,1.6252650666665431,632.5987515733341,None,,,,,mch,002,2019_Sep_25_1321,StressSession,3.1.3,59.99170674664615,
,,,,brown,blue,blue,brown,left,,,,,0,4,4,193,,,,,,,,,left,1.0709623466664198,634.7608064000015,None,,,,,mch,002,2019_Sep_25_1321,StressSession,3.1.3,59.99170674664615,
,,,,blue,magenta,magenta,blue,left,,,,,0,5,5,121,,,,,,,,,left,1.136927999999898,636.3746658133332,None,,,,,mch,002,2019_Sep_25_1321,StressSession,3.1.3,59.99170674664615,
,,,,cyan,black,cyan,black,right,,,,,0,6,6,45,,,,,,,,,right,1.1558079999995243,638.0519278933334,None,,,,,mch,002,2019_Sep_25_1321,StressSession,3.1.3,59.99170674664615,
,,,,cyan,brown,cyan,brown,right,,,,,0,7,7,43,,,,,,,,,right,1.2041510400013067,639.7394880000011,None,,,,,mch,002,2019_Sep_25_1321,StressSession,3.1.3,59.99170674664615,
,,,,magenta,white,magenta,white,right,,,,,0,8,8,35,,,,,,,,,right,1.162400853334475,641.493383680001,None,,,,,mch,002,2019_Sep_25_1321,StressSession,3.1.3,59.99170674664615,
,,,,brown,orange,orange,brown,left,,,,,0,9,9,198,,,,,,,,,left,0.9035037866669882,643.2002261333346,None,,,,,mch,002,2019_Sep_25_1321,StressSession,3.1.3,59.99170674664615,
,,,,red,magenta,red,magenta,right,,,,,0,10,10,2,,,,,,,,,right,0.9619882666665944,644.6456541866664,None,,,,,mch,002,2019_Sep_25_1321,StressSession,3.1.3,59.99170674664615,
,,,,orange,yellow,yellow,orange,left,,,,,0,11,11,179,,,,,,,,,right,0.9867093333341472,646.1488725333347,None,,,,,mch,002,2019_Sep_25_1321,StressSession,3.1.3,59.99170674664615,
,,,,red,orange,red,orange,right,,,,,0,12,12,5,,,,,,,,,right,1.227461973334357,647.6686907733347,None,,,,,mch,002,2019_Sep_25_1321,StressSession,3.1.3,59.99170674664615,
,,,,black,blue,black,blue,right,,,,,0,13,13,101,,,,,,,,,right,1.6010368000006565,649.4306769066679,None,,,,,mch,002,2019_Sep_25_1321,StressSession,3.1.3,59.99170674664615,
,,,,yellow,cyan,yellow,cyan,right,,,,,0,14,14,59,,,,,,,,,right,1.0712938666656555,651.5765900799997,None,,,,,mch,002,2019_Sep_25_1321,StressSession,3.1.3,59.99170674664615,
,,,,purple,orange,purple,orange,right,,,,,0,15,15,79,,,,,,,,,right,1.7419750400003977,653.1941009066668,None,,,,,mch,002,2019_Sep_25_1321,StressSession,3.1.3,59.99170674664615,
,,,,magenta,cyan,magenta,cyan,right,,,,,0,16,16,30,,,,,,,,,right,1.1475532799995563,655.4764910933336,None,,,,,mch,002,2019_Sep_25_1321,StressSession,3.1.3,59.99170674664615,
,,,,magenta,orange,orange,magenta,left,,,,,0,17,17,142,,,,,,,,,left,0.9681169066661823,657.151494400001,None,,,,,mch,002,2019_Sep_25_1321,StressSession,3.1.3,59.99170674664615,
,,,,purple,yellow,yellow,purple,left,,,,,0,18,18,188,,,,,,,,,left,1.8162342399991758,658.6555686400006,None,,,,,mch,002,2019_Sep_25_1321,StressSession,3.1.3,59.99170674664615,
,,,,cyan,green,green,cyan,left,,,,,0,19,19,158,,,,,,,,,left,0.8885610666657158,660.9990165333347,None,,,,,mch,002,2019_Sep_25_1321,StressSession,3.1.3,59.99170674664615,
,,,,yellow,orange,yellow,orange,right,,,,,0,20,20,50,,,,,,,,,right,0.7963383466667437,662.4193561600005,None,,,,,mch,002,2019_Sep_25_1321,StressSession,3.1.3,59.99170674664615,
,,,,yellow,magenta,yellow,magenta,right,,,,,0,21,21,58,,,,,,,,,right,1.1413623466669378,663.7387281066676,None,,,,,mch,002,2019_Sep_25_1321,StressSession,3.1.3,59.99170674664615,
,,,,black,purple,purple,black,left,,,,,0,22,22,217,,,,,,,,,left,1.4172676266662165,665.4146901333334,None,,,,,mch,002,2019_Sep_25_1321,StressSession,3.1.3,59.99170674664615,
,,,,black,cyan,black,cyan,right,,,,,0,23,23,104,,,,,,,,,right,1.0708706133336818,667.3532061866681,None,,,,,mch,002,2019_Sep_25_1321,StressSession,3.1.3,59.99170674664615,
,,,,black,blue,blue,black,left,,,,,0,24,24,211,,,,,,,,,left,1.2481817600000795,668.95164544,None,,,,,mch,002,2019_Sep_25_1321,StressSession,3.1.3,59.99170674664615,
,,,,orange,red,red,orange,left,,,,,0,25,25,174,,,,,,,,,left,1.413415253333369,670.7466154666672,None,,,,,mch,002,2019_Sep_25_1321,StressSession,3.1.3,59.99170674664615,
,,,,white,blue,blue,white,left,,,,,0,26,26,202,,,,,,,,,left,1.4628317866663565,672.697236906668,None,,,,,mch,002,2019_Sep_25_1321,StressSession,3.1.3,59.99170674664615,
,,,,red,purple,red,purple,right,,,,,0,27,27,6,,,,,,,,,right,1.0012053333339281,674.6869277866681,None,,,,,mch,002,2019_Sep_25_1321,StressSession,3.1.3,59.99170674664615,
,,,,brown,green,brown,green,right,,,,,0,28,28,84,,,,,,,,,right,1.0664486400000897,676.2211242666672,None,,,,,mch,002,2019_Sep_25_1321,StressSession,3.1.3,59.99170674664615,
,,,,purple,magenta,magenta,purple,left,,,,,0,29,29,186,,,,,,,,,left,2.070900906666793,677.8246054400006,None,,,,,mch,002,2019_Sep_25_1321,StressSession,3.1.3,59.99170674664615,
,,,,cyan,purple,purple,cyan,left,,,,,0,30,30,152,,,,,,,,,left,1.0460279466660722,680.4340424533348,None,,,,,mch,002,2019_Sep_25_1321,StressSession,3.1.3,59.99170674664615,
,,,,green,yellow,green,yellow,right,,,,,0,31,31,22,,,,,,,,,right,1.3907165866676223,682.016855466667,None,,,,,mch,002,2019_Sep_25_1321,StressSession,3.1.3,59.99170674664615,
,,,,brown,magenta,magenta,brown,left,,,,,0,32,32,195,,,,,,,,,left,1.3033715199999278,683.9522133333339,None,,,,,mch,002,2019_Sep_25_1321,StressSession,3.1.3,59.99170674664615,
,,,,yellow,purple,yellow,purple,right,,,,,0,33,33,51,,,,,,,,,right,1.0159991466662177,685.8002026666672,None,,,,,mch,002,2019_Sep_25_1321,StressSession,3.1.3,59.99170674664615,
,,,,blue,white,blue,white,right,,,,,0,34,34,17,,,,,,,,,right,1.1585164799998893,687.3450410666665,None,,,,,mch,002,2019_Sep_25_1321,StressSession,3.1.3,59.99170674664615,
,,,,yellow,black,yellow,black,right,,,,,0,35,35,54,,,,,,,,,right,1.0418009599998186,689.0461934933337,None,,,,,mch,002,2019_Sep_25_1321,StressSession,3.1.3,59.99170674664615,
,,,,cyan,black,black,cyan,left,,,,,0,36,36,155,,,,,,,,,left,1.0318429866674705,690.6242350933335,None,,,,,mch,002,2019_Sep_25_1321,StressSession,3.1.3,59.99170674664615,
,,,,blue,green,green,blue,left,,,,,0,37,37,120,,,,,,,,,left,0.9288588799990976,692.1911982933343,None,,,,,mch,002,2019_Sep_25_1321,StressSession,3.1.3,59.99170674664615,
,,,,orange,purple,purple,orange,left,,,,,0,38,38,170,,,,,,,,,left,0.954834773334369,693.6608708266667,None,,,,,mch,002,2019_Sep_25_1321,StressSession,3.1.3,59.99170674664615,
,,,,black,yellow,black,yellow,right,,,,,0,39,39,105,,,,,,,,,right,0.9967385599993577,695.1550033066669,None,,,,,mch,002,2019_Sep_25_1321,StressSession,3.1.3,59.99170674664615,
,,,,brown,cyan,brown,cyan,right,,,,,0,40,40,86,,,,,,,,,right,1.8217053866665083,696.6898542933341,None,,,,,mch,002,2019_Sep_25_1321,StressSession,3.1.3,59.99170674664615,
,,,,white,magenta,magenta,white,left,,,,,0,41,41,204,,,,,,,,,left,1.079529813332556,699.0560486400009,None,,,,,mch,002,2019_Sep_25_1321,StressSession,3.1.3,59.99170674664615,
,,,,brown,yellow,brown,yellow,right,,,,,0,42,42,87,,,,,,,,,right,1.1465156266658596,700.6695820800014,None,,,,,mch,002,2019_Sep_25_1321,StressSession,3.1.3,59.99170674664615,
,,,,purple,green,purple,green,right,,,,,0,43,43,75,,,,,,,,,right,0.7904567466666776,702.3535163733341,None,,,,,mch,002,2019_Sep_25_1321,StressSession,3.1.3,59.99170674664615,
,,,,black,red,red,black,left,,,,,0,44,44,210,,,,,,,,,left,0.975630506667585,703.6799611733331,None,,,,,mch,002,2019_Sep_25_1321,StressSession,3.1.3,59.99170674664615,
,,,,purple,red,red,purple,left,,,,,0,45,45,183,,,,,,,,,left,1.2133209600015107,705.1945881600004,None,,,,,mch,002,2019_Sep_25_1321,StressSession,3.1.3,59.99170674664615,
,,,,cyan,blue,cyan,blue,right,,,,,0,46,46,47,,,,,,,,,right,1.3913582933328144,706.9442171733335,None,,,,,mch,002,2019_Sep_25_1321,StressSession,3.1.3,59.99170674664615,
,,,,cyan,red,red,cyan,left,,,,,0,47,47,156,,,,,,,,,left,1.546943999999712,708.868893013334,None,,,,,mch,002,2019_Sep_25_1321,StressSession,3.1.3,59.99170674664615,
,,,,brown,white,white,brown,left,,,,,0,48,48,190,,,,,,,,,left,1.3750306133333652,710.9605593600008,None,,,,,mch,002,2019_Sep_25_1321,StressSession,3.1.3,59.99170674664615,
,,,,white,purple,purple,white,left,,,,,0,49,49,208,,,,,,,,,left,1.5068983466662758,712.8767837866671,None,,,,,mch,002,2019_Sep_25_1321,StressSession,3.1.3,59.99170674664615,
,,,,orange,brown,orange,brown,right,,,,,0,50,50,61,,,,,,,,,right,1.1296755200000916,714.9258850133338,None,,,,,mch,002,2019_Sep_25_1321,StressSession,3.1.3,59.99170674664615,
,,,,purple,brown,purple,brown,right,,,,,0,51,51,70,,,,,,,,,right,1.1740868266679172,716.5854737066675,None,,,,,mch,002,2019_Sep_25_1321,StressSession,3.1.3,59.99170674664615,
,,,,blue,yellow,yellow,blue,left,,,,,0,52,52,123,,,,,,,,,left,0.8167936000008922,718.3027763200007,None,,,,,mch,002,2019_Sep_25_1321,StressSession,3.1.3,59.99170674664615,
,,,,white,purple,white,purple,right,,,,,0,53,53,98,,,,,,,,,right,0.9539020800002618,719.6539899733343,None,,,,,mch,002,2019_Sep_25_1321,StressSession,3.1.3,59.99170674664615,
,,,,white,green,green,white,left,,,,,0,54,54,203,,,,,,,,,left,0.7674244266654568,721.14410752,None,,,,,mch,002,2019_Sep_25_1321,StressSession,3.1.3,59.99170674664615,
,,,,green,black,black,green,left,,,,,0,55,55,137,,,,,,,,,left,0.7988812799994776,722.4492100266671,None,,,,,mch,002,2019_Sep_25_1321,StressSession,3.1.3,59.99170674664615,
,,,,cyan,white,cyan,white,right,,,,,0,56,56,44,,,,,,,,,right,1.0182468266666547,723.7817271466665,None,,,,,mch,002,2019_Sep_25_1321,StressSession,3.1.3,59.99170674664615,
,,,,green,black,green,black,right,,,,,0,57,57,27,,,,,,,,,right,0.7940305066676956,725.3338986666677,None,,,,,mch,002,2019_Sep_25_1321,StressSession,3.1.3,59.99170674664615,
,,,,green,brown,green,brown,right,,,,,0,58,58,25,,,,,,,,,right,0.9322005333342531,726.6515443200005,None,,,,,mch,002,2019_Sep_25_1321,StressSession,3.1.3,59.99170674664615,
,,,,red,yellow,red,yellow,right,,,,,0,59,59,4,,,,,,,,,right,0.8014796799998294,728.1100492799997,None,,,,,mch,002,2019_Sep_25_1321,StressSession,3.1.3,59.99170674664615,
,,,,black,green,black,green,right,,,,,0,60,60,102,,,,,,,,,right,0.7307861333320034,729.4447897600003,None,,,,,mch,002,2019_Sep_25_1321,StressSession,3.1.3,59.99170674664615,
,,,,yellow,red,red,yellow,left,,,,,0,61,61,165,,,,,,,,,left,0.8090124800000922,730.7107217066678,None,,,,,mch,002,2019_Sep_25_1321,StressSession,3.1.3,59.99170674664615,
,,,,purple,green,green,purple,left,,,,,0,62,62,185,,,,,,,,,left,1.6336098133342603,732.0618862933334,None,,,,,mch,002,2019_Sep_25_1321,StressSession,3.1.3,59.99170674664615,
,,,,red,blue,red,blue,right,,,,,0,63,63,0,,,,,,,,,right,0.7561497599999711,734.2199240533337,None,,,,,mch,002,2019_Sep_25_1321,StressSession,3.1.3,59.99170674664615,
,,,,cyan,orange,cyan,orange,right,,,,,0,64,64,41,,,,,,,,,right,0.965189973334418,735.5064298666675,None,,,,,mch,002,2019_Sep_25_1321,StressSession,3.1.3,59.99170674664615,
,,,,red,white,white,red,left,,,,,0,65,65,118,,,,,,,,,left,1.630222080000749,737.0016238933331,None,,,,,mch,002,2019_Sep_25_1321,StressSession,3.1.3,59.99170674664615,
,,,,white,cyan,white,cyan,right,,,,,0,66,66,95,,,,,,,,,right,0.9622638933342387,739.1653256533336,None,,,,,mch,002,2019_Sep_25_1321,StressSession,3.1.3,59.99170674664615,
,,,,yellow,purple,purple,yellow,left,,,,,0,67,67,161,,,,,,,,,left,1.5983820799992827,740.6732057600002,None,,,,,mch,002,2019_Sep_25_1321,StressSession,3.1.3,59.99170674664615,
,,,,orange,red,orange,red,right,,,,,0,68,68,64,,,,,,,,,right,0.8054818133332446,742.8020812800005,None,,,,,mch,002,2019_Sep_25_1321,StressSession,3.1.3,59.99170674664615,
,,,,white,red,red,white,left,,,,,0,69,69,201,,,,,,,,,left,1.0262459733330616,744.1496238933341,None,,,,,mch,002,2019_Sep_25_1321,StressSession,3.1.3,59.99170674664615,
,,,,cyan,red,cyan,red,right,,,,,0,70,70,46,,,,,,,,,right,0.7683665066670073,745.7117367466672,None,,,,,mch,002,2019_Sep_25_1321,StressSession,3.1.3,59.99170674664615,
,,,,red,orange,orange,red,left,,,,,0,71,71,115,,,,,,,,,left,0.9370636799994827,747.0070148266677,None,,,,,mch,002,2019_Sep_25_1321,StressSession,3.1.3,59.99170674664615,
,,,,yellow,brown,brown,yellow,left,,,,,0,72,72,162,,,,,,,,,left,1.245026560000042,748.4826658133334,None,,,,,mch,002,2019_Sep_25_1321,StressSession,3.1.3,59.99170674664615,
,,,,magenta,purple,purple,magenta,left,,,,,0,73,73,143,,,,,,,,,left,1.213303040000028,750.2668356266677,None,,,,,mch,002,2019_Sep_25_1321,StressSession,3.1.3,59.99170674664615,
,,,,red,black,black,red,left,,,,,0,74,74,119,,,,,,,,,left,0.8145535999992717,752.0091822933337,None,,,,,mch,002,2019_Sep_25_1321,StressSession,3.1.3,59.99170674664615,
,,,,black,yellow,yellow,black,left,,,,,0,75,75,215,,,,,,,,,left,1.184775253332191,753.3592644266664,None,,,,,mch,002,2019_Sep_25_1321,StressSession,3.1.3,59.99170674664615,
,,,,purple,brown,brown,purple,left,,,,,0,76,76,180,,,,,,,,,left,0.9954240000006394,755.0760913066679,None,,,,,mch,002,2019_Sep_25_1321,StressSession,3.1.3,59.99170674664615,
,,,,magenta,green,magenta,green,right,,,,,0,77,77,39,,,,,,,,,right,0.8294591999983822,756.6106163200002,None,,,,,mch,002,2019_Sep_25_1321,StressSession,3.1.3,59.99170674664615,
,,,,red,blue,blue,red,left,,,,,0,78,78,110,,,,,,,,,left,0.7529083733334119,757.9672328533343,None,,,,,mch,002,2019_Sep_25_1321,StressSession,3.1.3,59.99170674664615,
,,,,green,purple,purple,green,left,,,,,0,79,79,134,,,,,,,,,left,0.9289817600001697,759.2551039999998,None,,,,,mch,002,2019_Sep_25_1321,StressSession,3.1.3,59.99170674664615,
,,,,red,black,red,black,right,,,,,0,80,80,9,,,,,,,,,right,0.6688247466663597,760.7151488,None,,,,,mch,002,2019_Sep_25_1321,StressSession,3.1.3,59.99170674664615,
,,,,orange,white,white,orange,left,,,,,0,81,81,172,,,,,,,,,left,0.9188727466662385,761.9209480533336,None,,,,,mch,002,2019_Sep_25_1321,StressSession,3.1.3,59.99170674664615,
,,,,black,orange,black,orange,right,,,,,0,82,82,106,,,,,,,,,right,1.0493717333338282,763.3742263466665,None,,,,,mch,002,2019_Sep_25_1321,StressSession,3.1.3,59.99170674664615,
,,,,green,magenta,magenta,green,left,,,,,0,83,83,130,,,,,,,,,left,0.9767291733351158,764.9673472000013,None,,,,,mch,002,2019_Sep_25_1321,StressSession,3.1.3,59.99170674664615,
,,,,orange,blue,blue,orange,left,,,,,0,84,84,175,,,,,,,,,left,0.8525137066662865,766.4831735466669,None,,,,,mch,002,2019_Sep_25_1321,StressSession,3.1.3,59.99170674664615,
,,,,yellow,green,yellow,green,right,,,,,0,85,85,57,,,,,,,,,right,0.7501030399998854,767.882080426667,None,,,,,mch,002,2019_Sep_25_1321,StressSession,3.1.3,59.99170674664615,
,,,,orange,black,orange,black,right,,,,,0,86,86,63,,,,,,,,,right,0.7556356266668445,769.1639505066669,None,,,,,mch,002,2019_Sep_25_1321,StressSession,3.1.3,59.99170674664615,
,,,,magenta,orange,magenta,orange,right,,,,,0,87,87,32,,,,,,,,,left,0.9728614399991784,770.4671820800013,None,,,,,mch,002,2019_Sep_25_1321,StressSession,3.1.3,59.99170674664615,
,,,,magenta,blue,magenta,blue,right,,,,,0,88,88,38,,,,,,,,,right,1.347801600000821,771.9644761600011,None,,,,,mch,002,2019_Sep_25_1321,StressSession,3.1.3,59.99170674664615,
,,,,magenta,black,magenta,black,right,,,,,0,89,89,36,,,,,,,,,right,0.7943385600010515,773.8295688533344,None,,,,,mch,002,2019_Sep_25_1321,StressSession,3.1.3,59.99170674664615,
,,,,blue,brown,blue,brown,right,,,,,0,90,90,16,,,,,,,,,right,1.1073672533329955,775.1562269866681,None,,,,,mch,002,2019_Sep_25_1321,StressSession,3.1.3,59.99170674664615,
,,,,magenta,white,white,magenta,left,,,,,0,91,91,145,,,,,,,,,left,1.4976985600005719,776.8141969066673,None,,,,,mch,002,2019_Sep_25_1321,StressSession,3.1.3,59.99170674664615,
,,,,green,yellow,yellow,green,left,,,,,0,92,92,132,,,,,,,,,left,0.9297659733329056,778.8542126933335,None,,,,,mch,002,2019_Sep_25_1321,StressSession,3.1.3,59.99170674664615,
,,,,yellow,white,white,yellow,left,,,,,0,93,93,163,,,,,,,,,left,1.325240746666168,780.3228539733336,None,,,,,mch,002,2019_Sep_25_1321,StressSession,3.1.3,59.99170674664615,
,,,,blue,red,red,blue,left,,,,,0,94,94,129,,,,,,,,,left,0.9305890133327921,782.1813828266677,None,,,,,mch,002,2019_Sep_25_1321,StressSession,3.1.3,59.99170674664615,
,,,,purple,white,white,purple,left,,,,,0,95,95,181,,,,,,,,,left,1.3454745599992748,783.6546589866666,None,,,,,mch,002,2019_Sep_25_1321,StressSession,3.1.3,59.99170674664615,
,,,,yellow,green,green,yellow,left,,,,,0,96,96,167,,,,,,,,,left,0.9935833599993202,785.5344853333336,None,,,,,mch,002,2019_Sep_25_1321,StressSession,3.1.3,59.99170674664615,
,,,,yellow,black,black,yellow,left,,,,,0,97,97,164,,,,,,,,,left,1.3158293333326583,787.0519496533343,None,,,,,mch,002,2019_Sep_25_1321,StressSession,3.1.3,59.99170674664615,
,,,,red,brown,red,brown,right,,,,,0,98,98,7,,,,,,,,,right,1.8914103466668166,788.8923374933347,None,,,,,mch,002,2019_Sep_25_1321,StressSession,3.1.3,59.99170674664615,
,,,,blue,green,blue,green,right,,,,,0,99,99,10,,,,,,,,,right,1.8978350933321053,791.326247680001,None,,,,,mch,002,2019_Sep_25_1321,StressSession,3.1.3,59.99170674664615,
,,,,black,brown,black,brown,right,,,,,0,100,100,108,,,,,,,,,right,1.578013866666879,793.7580467200005,None,,,,,mch,002,2019_Sep_25_1321,StressSession,3.1.3,59.99170674664615,
,,,,cyan,yellow,cyan,yellow,right,,,,,0,101,101,40,,,,,,,,,right,1.1747225599992817,795.8729169066664,None,,,,,mch,002,2019_Sep_25_1321,StressSession,3.1.3,59.99170674664615,
,,,,red,green,red,green,right,,,,,0,102,102,1,,,,,,,,,right,1.5573324799988768,797.5864281600007,None,,,,,mch,002,2019_Sep_25_1321,StressSession,3.1.3,59.99170674664615,
,,,,white,yellow,yellow,white,left,,,,,0,103,103,206,,,,,,,,,right,2.311574613333505,799.688247893333,None,,,,,mch,002,2019_Sep_25_1321,StressSession,3.1.3,59.99170674664615,
,,,,purple,cyan,cyan,purple,left,,,,,0,104,104,187,,,,,,,,,left,2.767225600000529,802.5364966400011,None,,,,,mch,002,2019_Sep_25_1321,StressSession,3.1.3,59.99170674664615,
,,,,green,red,red,green,left,,,,,0,105,105,138,,,,,,,,,left,1.5540595200000098,805.8298039466681,None,,,,,mch,002,2019_Sep_25_1321,StressSession,3.1.3,59.99170674664615,
,,,,purple,white,purple,white,right,,,,,0,106,106,71,,,,,,,,,right,1.1613316266666516,807.9187136,None,,,,,mch,002,2019_Sep_25_1321,StressSession,3.1.3,59.99170674664615,
,,,,white,green,white,green,right,,,,,0,107,107,93,,,,,,,,,right,1.5882239999991725,809.6198660266673,None,,,,,mch,002,2019_Sep_25_1321,StressSession,3.1.3,59.99170674664615,
,,,,cyan,yellow,yellow,cyan,left,,,,,0,108,108,150,,,,,,,,,left,1.2725738666667894,811.7430609066669,None,,,,,mch,002,2019_Sep_25_1321,StressSession,3.1.3,59.99170674664615,
,,,,yellow,cyan,cyan,yellow,left,,,,,0,109,109,169,,,,,,,,,left,1.118100053332455,813.5614545066674,None,,,,,mch,002,2019_Sep_25_1321,StressSession,3.1.3,59.99170674664615,
,,,,magenta,yellow,yellow,magenta,left,,,,,0,110,110,141,,,,,,,,,left,2.5467818666675157,815.2127078400008,None,,,,,mch,002,2019_Sep_25_1321,StressSession,3.1.3,59.99170674664615,
,,,,yellow,red,yellow,red,right,,,,,0,111,111,55,,,,,,,,,right,1.55213098666718,818.2797401600001,None,,,,,mch,002,2019_Sep_25_1321,StressSession,3.1.3,59.99170674664615,
,,,,magenta,blue,blue,magenta,left,,,,,0,112,112,148,,,,,,,,,left,0.8329480533320748,820.3747157333346,None,,,,,mch,002,2019_Sep_25_1321,StressSession,3.1.3,59.99170674664615,
,,,,black,magenta,black,magenta,right,,,,,0,113,113,103,,,,,,,,,right,1.3454459733329713,821.7263424000012,None,,,,,mch,002,2019_Sep_25_1321,StressSession,3.1.3,59.99170674664615,
,,,,white,cyan,cyan,white,left,,,,,0,114,114,205,,,,,,,,,left,0.9431138133331842,823.6006963199998,None,,,,,mch,002,2019_Sep_25_1321,StressSession,3.1.3,59.99170674664615,
,,,,purple,red,purple,red,right,,,,,0,115,115,73,,,,,,,,,right,0.8840908800011675,825.0840465066667,None,,,,,mch,002,2019_Sep_25_1321,StressSession,3.1.3,59.99170674664615,
,,,,magenta,brown,brown,magenta,left,,,,,0,116,116,144,,,,,,,,,left,1.1125474133332318,826.503518720001,None,,,,,mch,002,2019_Sep_25_1321,StressSession,3.1.3,59.99170674664615,
,,,,yellow,blue,yellow,blue,right,,,,,0,117,117,56,,,,,,,,,right,1.5070707199993194,828.1484774400014,None,,,,,mch,002,2019_Sep_25_1321,StressSession,3.1.3,59.99170674664615,
,,,,purple,yellow,purple,yellow,right,,,,,0,118,118,78,,,,,,,,,right,1.616446719999658,830.1993920000004,None,,,,,mch,002,2019_Sep_25_1321,StressSession,3.1.3,59.99170674664615,
,,,,purple,black,purple,black,right,,,,,0,119,119,72,,,,,,,,,right,0.7485277866671822,832.3313228799998,None,,,,,mch,002,2019_Sep_25_1321,StressSession,3.1.3,59.99170674664615,
,,,,magenta,black,black,magenta,left,,,,,0,120,120,146,,,,,,,,,left,0.969169066665927,833.6143697066673,None,,,,,mch,002,2019_Sep_25_1321,StressSession,3.1.3,59.99170674664615,
,,,,orange,yellow,orange,yellow,right,,,,,0,121,121,69,,,,,,,,,left,0.8481911466660677,835.1279522133336,None,,,,,mch,002,2019_Sep_25_1321,StressSession,3.1.3,59.99170674664615,
,,,,black,red,black,red,right,,,,,0,122,122,100,,,,,,,,,right,1.460837119999269,836.5070016000009,None,,,,,mch,002,2019_Sep_25_1321,StressSession,3.1.3,59.99170674664615,
,,,,green,orange,green,orange,right,,,,,0,123,123,23,,,,,,,,,right,1.2377190400002291,838.5061593600003,None,,,,,mch,002,2019_Sep_25_1321,StressSession,3.1.3,59.99170674664615,
,,,,blue,orange,orange,blue,left,,,,,0,124,124,124,,,,,,,,,left,1.1208512000011979,840.2869708800008,None,,,,,mch,002,2019_Sep_25_1321,StressSession,3.1.3,59.99170674664615,
,,,,brown,white,brown,white,right,,,,,0,125,125,80,,,,,,,,,right,1.032044373334429,841.9520968533343,None,,,,,mch,002,2019_Sep_25_1321,StressSession,3.1.3,59.99170674664615,
,,,,blue,red,blue,red,right,,,,,0,126,126,19,,,,,,,,,right,0.7556198399997811,843.5159095466679,None,,,,,mch,002,2019_Sep_25_1321,StressSession,3.1.3,59.99170674664615,
,,,,cyan,purple,cyan,purple,right,,,,,0,127,127,42,,,,,,,,,right,1.222325760001695,844.8012066133342,None,,,,,mch,002,2019_Sep_25_1321,StressSession,3.1.3,59.99170674664615,
,,,,brown,blue,brown,blue,right,,,,,0,128,128,83,,,,,,,,,right,1.1705830399987462,846.5651400533334,None,,,,,mch,002,2019_Sep_25_1321,StressSession,3.1.3,59.99170674664615,
,,,,black,brown,brown,black,left,,,,,0,129,129,218,,,,,,,,,left,1.6158698666658893,848.2557158400014,None,,,,,mch,002,2019_Sep_25_1321,StressSession,3.1.3,59.99170674664615,
,,,,magenta,brown,magenta,brown,right,,,,,0,130,130,34,,,,,,,,,right,1.9815185066654522,850.4182749866668,None,,,,,mch,002,2019_Sep_25_1321,StressSession,3.1.3,59.99170674664615,
,,,,cyan,brown,brown,cyan,left,,,,,0,131,131,153,,,,,,,,,left,1.2565781333341874,852.9429768533337,None,,,,,mch,002,2019_Sep_25_1321,StressSession,3.1.3,59.99170674664615,
,,,,yellow,white,yellow,white,right,,,,,0,132,132,53,,,,,,,,,right,0.8548398933326098,854.7447253333339,None,,,,,mch,002,2019_Sep_25_1321,StressSession,3.1.3,59.99170674664615,
,,,,white,brown,brown,white,left,,,,,0,133,133,209,,,,,,,,,left,1.7145770666684257,856.1331959466679,None,,,,,mch,002,2019_Sep_25_1321,StressSession,3.1.3,59.99170674664615,
,,,,cyan,blue,blue,cyan,left,,,,,0,134,134,157,,,,,,,,,left,1.499728213333583,858.3878600533335,None,,,,,mch,002,2019_Sep_25_1321,StressSession,3.1.3,59.99170674664615,
,,,,green,red,green,red,right,,,,,0,135,135,28,,,,,,,,,right,1.5886937600007514,860.4190476800013,None,,,,,mch,002,2019_Sep_25_1321,StressSession,3.1.3,59.99170674664615,
,,,,yellow,magenta,magenta,yellow,left,,,,,0,136,136,168,,,,,,,,,left,0.9960537599999952,862.5561169066677,None,,,,,mch,002,2019_Sep_25_1321,StressSession,3.1.3,59.99170674664615,
,,,,blue,white,white,blue,left,,,,,0,137,137,127,,,,,,,,,left,0.8850389333329076,864.0829439999998,None,,,,,mch,002,2019_Sep_25_1321,StressSession,3.1.3,59.99170674664615,
,,,,brown,magenta,brown,magenta,right,,,,,0,138,138,85,,,,,,,,,right,1.2306982400004927,865.5050218666674,None,,,,,mch,002,2019_Sep_25_1321,StressSession,3.1.3,59.99170674664615,
,,,,red,brown,brown,red,left,,,,,0,139,139,117,,,,,,,,,left,1.3004552533329843,867.2995886933331,None,,,,,mch,002,2019_Sep_25_1321,StressSession,3.1.3,59.99170674664615,
,,,,yellow,blue,blue,yellow,left,,,,,0,140,140,166,,,,,,,,,left,0.9801527466661355,869.1316317866676,None,,,,,mch,002,2019_Sep_25_1321,StressSession,3.1.3,59.99170674664615,
,,,,magenta,yellow,magenta,yellow,right,,,,,0,141,141,31,,,,,,,,,right,1.3156074666658242,870.6443374933333,None,,,,,mch,002,2019_Sep_25_1321,StressSession,3.1.3,59.99170674664615,
,,,,blue,black,blue,black,right,,,,,0,142,142,18,,,,,,,,,right,0.8035835733335261,872.4925452799998,None,,,,,mch,002,2019_Sep_25_1321,StressSession,3.1.3,59.99170674664615,
,,,,green,orange,orange,green,left,,,,,0,143,143,133,,,,,,,,,left,0.9004377599994768,873.827635626667,None,,,,,mch,002,2019_Sep_25_1321,StressSession,3.1.3,59.99170674664615,
,,,,orange,purple,orange,purple,right,,,,,0,144,144,60,,,,,,,,,right,0.8408046933327569,875.254915413334,None,,,,,mch,002,2019_Sep_25_1321,StressSession,3.1.3,59.99170674664615,
,,,,green,white,green,white,right,,,,,0,145,145,26,,,,,,,,,right,0.9345096533324977,876.625227946668,None,,,,,mch,002,2019_Sep_25_1321,StressSession,3.1.3,59.99170674664615,
,,,,white,yellow,white,yellow,right,,,,,0,146,146,96,,,,,,,,,right,0.93241216000024,878.0917209600011,None,,,,,mch,002,2019_Sep_25_1321,StressSession,3.1.3,59.99170674664615,
,,,,black,white,white,black,left,,,,,0,147,147,219,,,,,,,,,left,1.0862937599995348,879.5454664533336,None,,,,,mch,002,2019_Sep_25_1321,StressSession,3.1.3,59.99170674664615,
,,,,cyan,magenta,magenta,cyan,left,,,,,0,148,148,159,,,,,,,,,left,1.076206079998883,881.1716292266665,None,,,,,mch,002,2019_Sep_25_1321,StressSession,3.1.3,59.99170674664615,
,,,,green,magenta,green,magenta,right,,,,,0,149,149,20,,,,,,,,,right,1.4451293866677588,882.786440533333,None,,,,,mch,002,2019_Sep_25_1321,StressSession,3.1.3,59.99170674664615,
,,,,orange,cyan,orange,cyan,right,,,,,0,150,150,68,,,,,,,,,right,2.079536213332176,884.7685811200008,None,,,,,mch,002,2019_Sep_25_1321,StressSession,3.1.3,59.99170674664615,
,,,,blue,orange,blue,orange,right,,,,,0,151,151,14,,,,,,,,,right,0.9283686399994622,887.3834265599999,None,,,,,mch,002,2019_Sep_25_1321,StressSession,3.1.3,59.99170674664615,
,,,,yellow,orange,orange,yellow,left,,,,,0,152,152,160,,,,,,,,,left,0.9861491199990269,888.8535637333334,None,,,,,mch,002,2019_Sep_25_1321,StressSession,3.1.3,59.99170674664615,
,,,,brown,green,green,brown,left,,,,,0,153,153,194,,,,,,,,,left,1.099182079999082,890.3808874666665,None,,,,,mch,002,2019_Sep_25_1321,StressSession,3.1.3,59.99170674664615,
,,,,green,cyan,cyan,green,left,,,,,0,154,154,131,,,,,,,,,left,1.1172159999987343,892.0112234666667,None,,,,,mch,002,2019_Sep_25_1321,StressSession,3.1.3,59.99170674664615,
,,,,magenta,green,green,magenta,left,,,,,0,155,155,149,,,,,,,,,left,0.9489971200000582,893.6665659733335,None,,,,,mch,002,2019_Sep_25_1321,StressSession,3.1.3,59.99170674664615,
,,,,white,black,black,white,left,,,,,0,156,156,200,,,,,,,,,left,0.9516061866670498,895.1602611200015,None,,,,,mch,002,2019_Sep_25_1321,StressSession,3.1.3,59.99170674664615,
,,,,white,orange,white,orange,right,,,,,0,157,157,97,,,,,,,,,right,0.923374079999121,896.636530773334,None,,,,,mch,002,2019_Sep_25_1321,StressSession,3.1.3,59.99170674664615,
,,,,green,cyan,green,cyan,right,,,,,0,158,158,21,,,,,,,,,right,0.9575240533340548,898.0900829866678,None,,,,,mch,002,2019_Sep_25_1321,StressSession,3.1.3,59.99170674664615,
,,,,blue,cyan,blue,cyan,right,,,,,0,159,159,12,,,,,,,,,right,2.0441113600008975,899.5797721600011,None,,,,,mch,002,2019_Sep_25_1321,StressSession,3.1.3,59.99170674664615,
,,,,orange,white,orange,white,right,,,,,0,160,160,62,,,,,,,,,right,1.0588317866659054,902.1572505599997,None,,,,,mch,002,2019_Sep_25_1321,StressSession,3.1.3,59.99170674664615,
,,,,purple,cyan,purple,cyan,right,,,,,0,161,161,77,,,,,,,,,right,1.246170880000136,903.7539746133334,None,,,,,mch,002,2019_Sep_25_1321,StressSession,3.1.3,59.99170674664615,
,,,,orange,cyan,cyan,orange,left,,,,,0,162,162,178,,,,,,,,,left,1.1034581333333335,905.5360977066666,None,,,,,mch,002,2019_Sep_25_1321,StressSession,3.1.3,59.99170674664615,
,,,,brown,yellow,yellow,brown,left,,,,,0,163,163,197,,,,,,,,,left,1.065982719999738,907.1816319999998,None,,,,,mch,002,2019_Sep_25_1321,StressSession,3.1.3,59.99170674664615,
,,,,brown,red,brown,red,right,,,,,0,164,164,82,,,,,,,,,right,0.6922487466654275,908.7712452266678,None,,,,,mch,002,2019_Sep_25_1321,StressSession,3.1.3,59.99170674664615,
,,,,cyan,magenta,cyan,magenta,right,,,,,0,165,165,49,,,,,,,,,right,1.035514453333235,909.9965725866678,None,,,,,mch,002,2019_Sep_25_1321,StressSession,3.1.3,59.99170674664615,
,,,,red,cyan,cyan,red,left,,,,,0,166,166,113,,,,,,,,,left,1.0480106666655047,911.5515703466681,None,,,,,mch,002,2019_Sep_25_1321,StressSession,3.1.3,59.99170674664615,
,,,,magenta,red,red,magenta,left,,,,,0,167,167,147,,,,,,,,,left,0.956327253334166,913.1475080533346,None,,,,,mch,002,2019_Sep_25_1321,StressSession,3.1.3,59.99170674664615,
,,,,blue,purple,blue,purple,right,,,,,0,168,168,15,,,,,,,,,right,1.0342208000001847,914.6454873600014,None,,,,,mch,002,2019_Sep_25_1321,StressSession,3.1.3,59.99170674664615,
,,,,magenta,red,magenta,red,right,,,,,0,169,169,37,,,,,,,,,right,1.076374186666726,916.2114794666668,None,,,,,mch,002,2019_Sep_25_1321,StressSession,3.1.3,59.99170674664615,
,,,,magenta,purple,magenta,purple,right,,,,,0,170,170,33,,,,,,,,,right,1.5477806933322427,917.8117990400006,None,,,,,mch,002,2019_Sep_25_1321,StressSession,3.1.3,59.99170674664615,
,,,,purple,blue,blue,purple,left,,,,,0,171,171,184,,,,,,,,,left,1.1171170133329724,919.8829538133341,None,,,,,mch,002,2019_Sep_25_1321,StressSession,3.1.3,59.99170674664615,
,,,,orange,green,orange,green,right,,,,,0,172,172,66,,,,,,,,,right,0.8122602666662715,921.5395733333335,None,,,,,mch,002,2019_Sep_25_1321,StressSession,3.1.3,59.99170674664615,
,,,,black,magenta,magenta,black,left,,,,,0,173,173,213,,,,,,,,,left,1.0090850133328786,922.8865587199998,None,,,,,mch,002,2019_Sep_25_1321,StressSession,3.1.3,59.99170674664615,
,,,,cyan,white,white,cyan,left,,,,,0,174,174,154,,,,,,,,,left,0.9663679999994201,924.4336644266677,None,,,,,mch,002,2019_Sep_25_1321,StressSession,3.1.3,59.99170674664615,
,,,,black,white,black,white,right,,,,,0,175,175,109,,,,,,,,,right,1.2985958400004165,925.9329834666678,None,,,,,mch,002,2019_Sep_25_1321,StressSession,3.1.3,59.99170674664615,
,,,,orange,green,green,orange,left,,,,,0,176,176,176,,,,,,,,,left,1.2084160000013071,927.7676428800005,None,,,,,mch,002,2019_Sep_25_1321,StressSession,3.1.3,59.99170674664615,
,,,,blue,cyan,cyan,blue,left,,,,,0,177,177,122,,,,,,,,,right,1.5203225599998405,929.5118092800003,None,,,,,mch,002,2019_Sep_25_1321,StressSession,3.1.3,59.99170674664615,
,,,,brown,orange,brown,orange,right,,,,,0,178,178,88,,,,,,,,,right,1.7654937600000267,931.5630626133334,None,,,,,mch,002,2019_Sep_25_1321,StressSession,3.1.3,59.99170674664615,
,,,,brown,purple,purple,brown,left,,,,,0,179,179,199,,,,,,,,,left,1.0003037866663362,933.8558045866666,None,,,,,mch,002,2019_Sep_25_1321,StressSession,3.1.3,59.99170674664615,
,,,,orange,blue,orange,blue,right,,,,,0,180,180,65,,,,,,,,,right,1.3252505599994038,935.3948373333333,None,,,,,mch,002,2019_Sep_25_1321,StressSession,3.1.3,59.99170674664615,
,,,,red,cyan,red,cyan,right,,,,,0,181,181,3,,,,,,,,,right,1.0990165333332698,937.252802986668,None,,,,,mch,002,2019_Sep_25_1321,StressSession,3.1.3,59.99170674664615,
,,,,green,blue,green,blue,right,,,,,0,182,182,29,,,,,,,,,right,1.1012228266663442,938.8906773333347,None,,,,,mch,002,2019_Sep_25_1321,StressSession,3.1.3,59.99170674664615,
,,,,magenta,cyan,cyan,magenta,left,,,,,0,183,183,140,,,,,,,,,left,1.240532053332572,940.5270425600011,None,,,,,mch,002,2019_Sep_25_1321,StressSession,3.1.3,59.99170674664615,
,,,,orange,magenta,magenta,orange,left,,,,,0,184,184,177,,,,,,,,,left,1.2091114666673093,942.311114666667,None,,,,,mch,002,2019_Sep_25_1321,StressSession,3.1.3,59.99170674664615,
,,,,black,green,green,black,left,,,,,0,185,185,212,,,,,,,,,left,0.9082875733347464,944.0513702400003,None,,,,,mch,002,2019_Sep_25_1321,StressSession,3.1.3,59.99170674664615,
,,,,brown,cyan,cyan,brown,left,,,,,0,186,186,196,,,,,,,,,left,1.0747537066654331,945.500890880001,None,,,,,mch,002,2019_Sep_25_1321,StressSession,3.1.3,59.99170674664615,
,,,,blue,purple,purple,blue,left,,,,,0,187,187,125,,,,,,,,,left,1.1314440533333254,947.11648384,None,,,,,mch,002,2019_Sep_25_1321,StressSession,3.1.3,59.99170674664615,
,,,,white,blue,white,blue,right,,,,,0,188,188,92,,,,,,,,,right,1.198821546666295,948.7772684800002,None,,,,,mch,002,2019_Sep_25_1321,StressSession,3.1.3,59.99170674664615,
,,,,green,blue,blue,green,left,,,,,0,189,189,139,,,,,,,,,left,1.614736213334254,950.5129408000012,None,,,,,mch,002,2019_Sep_25_1321,StressSession,3.1.3,59.99170674664615,
,,,,black,cyan,cyan,black,left,,,,,0,190,190,214,,,,,,,,,left,1.3387840000013966,952.6610278400003,None,,,,,mch,002,2019_Sep_25_1321,StressSession,3.1.3,59.99170674664615,
,,,,cyan,green,cyan,green,right,,,,,0,191,191,48,,,,,,,,,right,0.721746773333507,954.5343321600012,None,,,,,mch,002,2019_Sep_25_1321,StressSession,3.1.3,59.99170674664615,
,,,,brown,black,black,brown,left,,,,,0,192,192,191,,,,,,,,,left,0.9036876800000755,955.7918617600008,None,,,,,mch,002,2019_Sep_25_1321,StressSession,3.1.3,59.99170674664615,
,,,,green,white,white,green,left,,,,,0,193,193,136,,,,,,,,,left,1.4478203733342525,957.2241442133345,None,,,,,mch,002,2019_Sep_25_1321,StressSession,3.1.3,59.99170674664615,
,,,,green,purple,green,purple,right,,,,,0,194,194,24,,,,,,,,,right,0.8953574400002253,959.2005730133333,None,,,,,mch,002,2019_Sep_25_1321,StressSession,3.1.3,59.99170674664615,
,,,,red,white,red,white,right,,,,,0,195,195,8,,,,,,,,,right,1.0060057600003347,960.6339993600013,None,,,,,mch,002,2019_Sep_25_1321,StressSession,3.1.3,59.99170674664615,
,,,,brown,purple,brown,purple,right,,,,,0,196,196,89,,,,,,,,,right,1.0458854400003474,962.1701934933335,None,,,,,mch,002,2019_Sep_25_1321,StressSession,3.1.3,59.99170674664615,
,,,,red,magenta,magenta,red,left,,,,,0,197,197,112,,,,,,,,,left,1.16888490666679,963.7511048533343,None,,,,,mch,002,2019_Sep_25_1321,StressSession,3.1.3,59.99170674664615,
,,,,red,purple,purple,red,left,,,,,0,198,198,116,,,,,,,,,left,1.3293201066662732,965.4387938133332,None,,,,,mch,002,2019_Sep_25_1321,StressSession,3.1.3,59.99170674664615,
,,,,yellow,brown,yellow,brown,right,,,,,0,199,199,52,,,,,,,,,right,0.9621529599990026,967.3015816533334,None,,,,,mch,002,2019_Sep_25_1321,StressSession,3.1.3,59.99170674664615,
,,,,red,green,green,red,left,,,,,0,200,200,111,,,,,,,,,left,0.7970504533332132,968.7945331200008,None,,,,,mch,002,2019_Sep_25_1321,StressSession,3.1.3,59.99170674664615,
,,,,white,magenta,white,magenta,right,,,,,0,201,201,94,,,,,,,,,right,0.8230335999996896,970.1370525866678,None,,,,,mch,002,2019_Sep_25_1321,StressSession,3.1.3,59.99170674664615,
,,,,white,red,white,red,right,,,,,0,202,202,91,,,,,,,,,right,0.7888652799992997,971.4829602133341,None,,,,,mch,002,2019_Sep_25_1321,StressSession,3.1.3,59.99170674664615,
,,,,white,brown,white,brown,right,,,,,0,203,203,99,,,,,,,,,right,1.0248529066666379,972.7992584533331,None,,,,,mch,002,2019_Sep_25_1321,StressSession,3.1.3,59.99170674664615,
,,,,white,black,white,black,right,,,,,0,204,204,90,,,,,,,,,right,0.8438024533334101,974.3480064000014,None,,,,,mch,002,2019_Sep_25_1321,StressSession,3.1.3,59.99170674664615,
,,,,purple,blue,purple,blue,right,,,,,0,205,205,74,,,,,,,,,right,0.7517917866662174,975.7278715733337,None,,,,,mch,002,2019_Sep_25_1321,StressSession,3.1.3,59.99170674664615,
,,,,blue,yellow,blue,yellow,right,,,,,0,206,206,13,,,,,,,,,right,0.9123686399998405,977.0076727466676,None,,,,,mch,002,2019_Sep_25_1321,StressSession,3.1.3,59.99170674664615,
,,,,red,yellow,yellow,red,left,,,,,0,207,207,114,,,,,,,,,left,1.2014365866671142,978.4541077333342,None,,,,,mch,002,2019_Sep_25_1321,StressSession,3.1.3,59.99170674664615,
,,,,white,orange,orange,white,left,,,,,0,208,208,207,,,,,,,,,left,1.0235630933348148,980.1923729066675,None,,,,,mch,002,2019_Sep_25_1321,StressSession,3.1.3,59.99170674664615,
,,,,blue,magenta,blue,magenta,right,,,,,0,209,209,11,,,,,,,,,right,0.7715468799997325,981.7560320000011,None,,,,,mch,002,2019_Sep_25_1321,StressSession,3.1.3,59.99170674664615,
,,,,brown,black,brown,black,right,,,,,0,210,210,81,,,,,,,,,right,1.8981043200001295,983.0696371200011,None,,,,,mch,002,2019_Sep_25_1321,StressSession,3.1.3,59.99170674664615,
,,,,brown,red,red,brown,left,,,,,0,211,211,192,,,,,,,,,left,0.7160076799991657,985.4919133866679,None,,,,,mch,002,2019_Sep_25_1321,StressSession,3.1.3,59.99170674664615,
,,,,black,orange,orange,black,left,,,,,0,212,212,216,,,,,,,,,left,0.7530841600000713,986.750617173333,None,,,,,mch,002,2019_Sep_25_1321,StressSession,3.1.3,59.99170674664615,
,,,,purple,black,black,purple,left,,,,,0,213,213,182,,,,,,,,,left,3.0059938133326796,988.0337049600003,None,,,,,mch,002,2019_Sep_25_1321,StressSession,3.1.3,59.99170674664615,
,,,,purple,magenta,purple,magenta,right,,,,,0,214,214,76,,,,,,,,,right,0.6877657599998201,991.5763054933341,None,,,,,mch,002,2019_Sep_25_1321,StressSession,3.1.3,59.99170674664615,
,,,,orange,brown,brown,orange,left,,,,,0,215,215,171,,,,,,,,,left,0.8744870400005311,992.797096960001,None,,,,,mch,002,2019_Sep_25_1321,StressSession,3.1.3,59.99170674664615,
,,,,black,purple,black,purple,right,,,,,0,216,216,107,,,,,,,,,right,0.8611285333336127,994.2104251733344,None,,,,,mch,002,2019_Sep_25_1321,StressSession,3.1.3,59.99170674664615,
,,,,orange,magenta,orange,magenta,right,,,,,0,217,217,67,,,,,,,,,right,1.465001813332492,995.614781440001,None,,,,,mch,002,2019_Sep_25_1321,StressSession,3.1.3,59.99170674664615,
,,,,blue,brown,brown,blue,left,,,,,0,218,218,126,,,,,,,,,left,0.9769152000008035,997.6068450133334,None,,,,,mch,002,2019_Sep_25_1321,StressSession,3.1.3,59.99170674664615,
,,,,blue,black,black,blue,left,,,,,0,219,219,128,,,,,,,,,left,0.936529493332273,999.1110771200001,None,,,,,mch,002,2019_Sep_25_1321,StressSession,3.1.3,59.99170674664615,
,,,,,,,,,,,,,,,,,,,,4,11.759,,,,,,,,2019-09-25_13:37:56,,,,mch,002,2019_Sep_25_1321,StressSession,3.1.3,59.99170674664615,
,,,,,,,,,,,,,,,,,,,,,,2,7.072,,,,,,,,,,mch,002,2019_Sep_25_1321,StressSession,3.1.3,59.99170674664615,
,,,,,,,,,,,,,,,,,,,,2,7.672,,,,,,,,,2019-09-25_13:38:43,2019-09-25_13:43:43,,mch,002,2019_Sep_25_1321,StressSession,3.1.3,59.99170674664615,
,,,,,,,,,,,,,,,,,,,,,,,,,,,,,,,,2019-09-25_13:43:53,,,,,,,
