Tick,Color,Tone,TimeDur,WordItem,WordColor,AnsLeft,AnsRight,AnsCorr,tick.thisRepN,tick.thisTrialN,tick.thisN,tick.thisIndex,stroop_trials.thisRepN,stroop_trials.thisTrialN,stroop_trials.thisN,stroop_trials.thisIndex,start_session_two,start_stress_one,end_stress_one,rating_evaluation_one.response,rating_evaluation_one.rt,rating_evaluation_two.response,rating_evaluation_two.rt,start_stress_two,key_resp_part_two_meas.keys,key_resp_part_two_meas.rt,key_resp_part_two_meas.started,key_resp_part_two_meas.stopped,end_stress_two,start_cooldown_measurement,end_cooldown_measurement,end_session_two,participant,session,date,expName,psychopyVersion,frameRate,
1,green,440,1.0,,,,,,0,0,0,0,,,,,2019-10-08_11:09:20,2019-10-08_11:10:57,,,,,,,,,,,,,,,es,002,2019_Oct_08_1109,StressSession,3.1.3,59.998336046800524,
2,green,440,1.0,,,,,,0,1,1,1,,,,,,,,,,,,,,,,,,,,,es,002,2019_Oct_08_1109,StressSession,3.1.3,59.998336046800524,
3,green,440,1.0,,,,,,0,2,2,2,,,,,,,,,,,,,,,,,,,,,es,002,2019_Oct_08_1109,StressSession,3.1.3,59.998336046800524,
4,green,440,1.0,,,,,,0,3,3,3,,,,,,,,,,,,,,,,,,,,,es,002,2019_Oct_08_1109,StressSession,3.1.3,59.998336046800524,
5,green,440,1.0,,,,,,0,4,4,4,,,,,,,,,,,,,,,,,,,,,es,002,2019_Oct_08_1109,StressSession,3.1.3,59.998336046800524,
6,green,440,1.0,,,,,,0,5,5,5,,,,,,,,,,,,,,,,,,,,,es,002,2019_Oct_08_1109,StressSession,3.1.3,59.998336046800524,
7,green,440,1.0,,,,,,0,6,6,6,,,,,,,,,,,,,,,,,,,,,es,002,2019_Oct_08_1109,StressSession,3.1.3,59.998336046800524,
8,green,440,1.0,,,,,,0,7,7,7,,,,,,,,,,,,,,,,,,,,,es,002,2019_Oct_08_1109,StressSession,3.1.3,59.998336046800524,
9,green,440,1.0,,,,,,0,8,8,8,,,,,,,,,,,,,,,,,,,,,es,002,2019_Oct_08_1109,StressSession,3.1.3,59.998336046800524,
10,green,440,1.0,,,,,,0,9,9,9,,,,,,,,,,,,,,,,,,,,,es,002,2019_Oct_08_1109,StressSession,3.1.3,59.998336046800524,
11,green,440,1.0,,,,,,0,10,10,10,,,,,,,,,,,,,,,,,,,,,es,002,2019_Oct_08_1109,StressSession,3.1.3,59.998336046800524,
12,green,440,1.0,,,,,,0,11,11,11,,,,,,,,,,,,,,,,,,,,,es,002,2019_Oct_08_1109,StressSession,3.1.3,59.998336046800524,
13,green,440,1.0,,,,,,0,12,12,12,,,,,,,,,,,,,,,,,,,,,es,002,2019_Oct_08_1109,StressSession,3.1.3,59.998336046800524,
14,green,440,1.0,,,,,,0,13,13,13,,,,,,,,,,,,,,,,,,,,,es,002,2019_Oct_08_1109,StressSession,3.1.3,59.998336046800524,
15,green,440,1.0,,,,,,0,14,14,14,,,,,,,,,,,,,,,,,,,,,es,002,2019_Oct_08_1109,StressSession,3.1.3,59.998336046800524,
16,green,440,1.0,,,,,,0,15,15,15,,,,,,,,,,,,,,,,,,,,,es,002,2019_Oct_08_1109,StressSession,3.1.3,59.998336046800524,
17,green,440,1.0,,,,,,0,16,16,16,,,,,,,,,,,,,,,,,,,,,es,002,2019_Oct_08_1109,StressSession,3.1.3,59.998336046800524,
18,green,440,1.0,,,,,,0,17,17,17,,,,,,,,,,,,,,,,,,,,,es,002,2019_Oct_08_1109,StressSession,3.1.3,59.998336046800524,
19,green,440,1.0,,,,,,0,18,18,18,,,,,,,,,,,,,,,,,,,,,es,002,2019_Oct_08_1109,StressSession,3.1.3,59.998336046800524,
20,green,440,1.0,,,,,,0,19,19,19,,,,,,,,,,,,,,,,,,,,,es,002,2019_Oct_08_1109,StressSession,3.1.3,59.998336046800524,
21,green,440,1.0,,,,,,0,20,20,20,,,,,,,,,,,,,,,,,,,,,es,002,2019_Oct_08_1109,StressSession,3.1.3,59.998336046800524,
22,green,440,1.0,,,,,,0,21,21,21,,,,,,,,,,,,,,,,,,,,,es,002,2019_Oct_08_1109,StressSession,3.1.3,59.998336046800524,
23,green,440,1.0,,,,,,0,22,22,22,,,,,,,,,,,,,,,,,,,,,es,002,2019_Oct_08_1109,StressSession,3.1.3,59.998336046800524,
24,green,440,1.0,,,,,,0,23,23,23,,,,,,,,,,,,,,,,,,,,,es,002,2019_Oct_08_1109,StressSession,3.1.3,59.998336046800524,
25,green,440,1.0,,,,,,0,24,24,24,,,,,,,,,,,,,,,,,,,,,es,002,2019_Oct_08_1109,StressSession,3.1.3,59.998336046800524,
26,green,440,1.0,,,,,,0,25,25,25,,,,,,,,,,,,,,,,,,,,,es,002,2019_Oct_08_1109,StressSession,3.1.3,59.998336046800524,
27,green,440,1.0,,,,,,0,26,26,26,,,,,,,,,,,,,,,,,,,,,es,002,2019_Oct_08_1109,StressSession,3.1.3,59.998336046800524,
28,green,440,1.0,,,,,,0,27,27,27,,,,,,,,,,,,,,,,,,,,,es,002,2019_Oct_08_1109,StressSession,3.1.3,59.998336046800524,
29,green,440,1.0,,,,,,0,28,28,28,,,,,,,,,,,,,,,,,,,,,es,002,2019_Oct_08_1109,StressSession,3.1.3,59.998336046800524,
30,green,440,1.0,,,,,,0,29,29,29,,,,,,,,,,,,,,,,,,,,,es,002,2019_Oct_08_1109,StressSession,3.1.3,59.998336046800524,
31,green,440,1.0,,,,,,0,30,30,30,,,,,,,,,,,,,,,,,,,,,es,002,2019_Oct_08_1109,StressSession,3.1.3,59.998336046800524,
32,green,440,1.0,,,,,,0,31,31,31,,,,,,,,,,,,,,,,,,,,,es,002,2019_Oct_08_1109,StressSession,3.1.3,59.998336046800524,
33,green,440,1.0,,,,,,0,32,32,32,,,,,,,,,,,,,,,,,,,,,es,002,2019_Oct_08_1109,StressSession,3.1.3,59.998336046800524,
34,green,440,1.0,,,,,,0,33,33,33,,,,,,,,,,,,,,,,,,,,,es,002,2019_Oct_08_1109,StressSession,3.1.3,59.998336046800524,
35,green,440,1.0,,,,,,0,34,34,34,,,,,,,,,,,,,,,,,,,,,es,002,2019_Oct_08_1109,StressSession,3.1.3,59.998336046800524,
36,green,440,1.0,,,,,,0,35,35,35,,,,,,,,,,,,,,,,,,,,,es,002,2019_Oct_08_1109,StressSession,3.1.3,59.998336046800524,
37,green,440,1.0,,,,,,0,36,36,36,,,,,,,,,,,,,,,,,,,,,es,002,2019_Oct_08_1109,StressSession,3.1.3,59.998336046800524,
38,green,440,1.0,,,,,,0,37,37,37,,,,,,,,,,,,,,,,,,,,,es,002,2019_Oct_08_1109,StressSession,3.1.3,59.998336046800524,
39,green,440,1.0,,,,,,0,38,38,38,,,,,,,,,,,,,,,,,,,,,es,002,2019_Oct_08_1109,StressSession,3.1.3,59.998336046800524,
40,green,440,1.0,,,,,,0,39,39,39,,,,,,,,,,,,,,,,,,,,,es,002,2019_Oct_08_1109,StressSession,3.1.3,59.998336046800524,
41,green,440,1.0,,,,,,0,40,40,40,,,,,,,,,,,,,,,,,,,,,es,002,2019_Oct_08_1109,StressSession,3.1.3,59.998336046800524,
42,green,440,1.0,,,,,,0,41,41,41,,,,,,,,,,,,,,,,,,,,,es,002,2019_Oct_08_1109,StressSession,3.1.3,59.998336046800524,
43,green,440,1.0,,,,,,0,42,42,42,,,,,,,,,,,,,,,,,,,,,es,002,2019_Oct_08_1109,StressSession,3.1.3,59.998336046800524,
44,green,440,1.0,,,,,,0,43,43,43,,,,,,,,,,,,,,,,,,,,,es,002,2019_Oct_08_1109,StressSession,3.1.3,59.998336046800524,
45,green,440,1.0,,,,,,0,44,44,44,,,,,,,,,,,,,,,,,,,,,es,002,2019_Oct_08_1109,StressSession,3.1.3,59.998336046800524,
46,green,440,1.0,,,,,,0,45,45,45,,,,,,,,,,,,,,,,,,,,,es,002,2019_Oct_08_1109,StressSession,3.1.3,59.998336046800524,
47,green,440,1.0,,,,,,0,46,46,46,,,,,,,,,,,,,,,,,,,,,es,002,2019_Oct_08_1109,StressSession,3.1.3,59.998336046800524,
48,green,440,1.0,,,,,,0,47,47,47,,,,,,,,,,,,,,,,,,,,,es,002,2019_Oct_08_1109,StressSession,3.1.3,59.998336046800524,
49,green,440,1.0,,,,,,0,48,48,48,,,,,,,,,,,,,,,,,,,,,es,002,2019_Oct_08_1109,StressSession,3.1.3,59.998336046800524,
50,green,440,1.0,,,,,,0,49,49,49,,,,,,,,,,,,,,,,,,,,,es,002,2019_Oct_08_1109,StressSession,3.1.3,59.998336046800524,
51,green,440,1.0,,,,,,0,50,50,50,,,,,,,,,,,,,,,,,,,,,es,002,2019_Oct_08_1109,StressSession,3.1.3,59.998336046800524,
52,green,440,1.0,,,,,,0,51,51,51,,,,,,,,,,,,,,,,,,,,,es,002,2019_Oct_08_1109,StressSession,3.1.3,59.998336046800524,
53,green,440,1.0,,,,,,0,52,52,52,,,,,,,,,,,,,,,,,,,,,es,002,2019_Oct_08_1109,StressSession,3.1.3,59.998336046800524,
54,green,440,1.0,,,,,,0,53,53,53,,,,,,,,,,,,,,,,,,,,,es,002,2019_Oct_08_1109,StressSession,3.1.3,59.998336046800524,
55,green,440,1.0,,,,,,0,54,54,54,,,,,,,,,,,,,,,,,,,,,es,002,2019_Oct_08_1109,StressSession,3.1.3,59.998336046800524,
56,green,440,1.0,,,,,,0,55,55,55,,,,,,,,,,,,,,,,,,,,,es,002,2019_Oct_08_1109,StressSession,3.1.3,59.998336046800524,
57,green,440,1.0,,,,,,0,56,56,56,,,,,,,,,,,,,,,,,,,,,es,002,2019_Oct_08_1109,StressSession,3.1.3,59.998336046800524,
58,green,440,1.0,,,,,,0,57,57,57,,,,,,,,,,,,,,,,,,,,,es,002,2019_Oct_08_1109,StressSession,3.1.3,59.998336046800524,
59,green,440,1.0,,,,,,0,58,58,58,,,,,,,,,,,,,,,,,,,,,es,002,2019_Oct_08_1109,StressSession,3.1.3,59.998336046800524,
60,green,440,1.0,,,,,,0,59,59,59,,,,,,,,,,,,,,,,,,,,,es,002,2019_Oct_08_1109,StressSession,3.1.3,59.998336046800524,
61,green,440,1.0,,,,,,0,60,60,60,,,,,,,,,,,,,,,,,,,,,es,002,2019_Oct_08_1109,StressSession,3.1.3,59.998336046800524,
62,green,440,1.0,,,,,,0,61,61,61,,,,,,,,,,,,,,,,,,,,,es,002,2019_Oct_08_1109,StressSession,3.1.3,59.998336046800524,
63,green,440,1.0,,,,,,0,62,62,62,,,,,,,,,,,,,,,,,,,,,es,002,2019_Oct_08_1109,StressSession,3.1.3,59.998336046800524,
64,green,440,1.0,,,,,,0,63,63,63,,,,,,,,,,,,,,,,,,,,,es,002,2019_Oct_08_1109,StressSession,3.1.3,59.998336046800524,
65,green,440,1.0,,,,,,0,64,64,64,,,,,,,,,,,,,,,,,,,,,es,002,2019_Oct_08_1109,StressSession,3.1.3,59.998336046800524,
66,green,440,1.0,,,,,,0,65,65,65,,,,,,,,,,,,,,,,,,,,,es,002,2019_Oct_08_1109,StressSession,3.1.3,59.998336046800524,
67,green,440,1.0,,,,,,0,66,66,66,,,,,,,,,,,,,,,,,,,,,es,002,2019_Oct_08_1109,StressSession,3.1.3,59.998336046800524,
68,green,440,1.0,,,,,,0,67,67,67,,,,,,,,,,,,,,,,,,,,,es,002,2019_Oct_08_1109,StressSession,3.1.3,59.998336046800524,
69,green,440,1.0,,,,,,0,68,68,68,,,,,,,,,,,,,,,,,,,,,es,002,2019_Oct_08_1109,StressSession,3.1.3,59.998336046800524,
70,green,440,1.0,,,,,,0,69,69,69,,,,,,,,,,,,,,,,,,,,,es,002,2019_Oct_08_1109,StressSession,3.1.3,59.998336046800524,
71,green,440,1.0,,,,,,0,70,70,70,,,,,,,,,,,,,,,,,,,,,es,002,2019_Oct_08_1109,StressSession,3.1.3,59.998336046800524,
72,green,440,1.0,,,,,,0,71,71,71,,,,,,,,,,,,,,,,,,,,,es,002,2019_Oct_08_1109,StressSession,3.1.3,59.998336046800524,
73,green,440,1.0,,,,,,0,72,72,72,,,,,,,,,,,,,,,,,,,,,es,002,2019_Oct_08_1109,StressSession,3.1.3,59.998336046800524,
74,green,440,1.0,,,,,,0,73,73,73,,,,,,,,,,,,,,,,,,,,,es,002,2019_Oct_08_1109,StressSession,3.1.3,59.998336046800524,
75,green,440,1.0,,,,,,0,74,74,74,,,,,,,,,,,,,,,,,,,,,es,002,2019_Oct_08_1109,StressSession,3.1.3,59.998336046800524,
76,green,440,1.0,,,,,,0,75,75,75,,,,,,,,,,,,,,,,,,,,,es,002,2019_Oct_08_1109,StressSession,3.1.3,59.998336046800524,
77,green,440,1.0,,,,,,0,76,76,76,,,,,,,,,,,,,,,,,,,,,es,002,2019_Oct_08_1109,StressSession,3.1.3,59.998336046800524,
78,green,440,1.0,,,,,,0,77,77,77,,,,,,,,,,,,,,,,,,,,,es,002,2019_Oct_08_1109,StressSession,3.1.3,59.998336046800524,
79,green,440,1.0,,,,,,0,78,78,78,,,,,,,,,,,,,,,,,,,,,es,002,2019_Oct_08_1109,StressSession,3.1.3,59.998336046800524,
80,green,440,1.0,,,,,,0,79,79,79,,,,,,,,,,,,,,,,,,,,,es,002,2019_Oct_08_1109,StressSession,3.1.3,59.998336046800524,
81,green,440,1.0,,,,,,0,80,80,80,,,,,,,,,,,,,,,,,,,,,es,002,2019_Oct_08_1109,StressSession,3.1.3,59.998336046800524,
82,green,440,1.0,,,,,,0,81,81,81,,,,,,,,,,,,,,,,,,,,,es,002,2019_Oct_08_1109,StressSession,3.1.3,59.998336046800524,
83,green,440,1.0,,,,,,0,82,82,82,,,,,,,,,,,,,,,,,,,,,es,002,2019_Oct_08_1109,StressSession,3.1.3,59.998336046800524,
84,green,440,1.0,,,,,,0,83,83,83,,,,,,,,,,,,,,,,,,,,,es,002,2019_Oct_08_1109,StressSession,3.1.3,59.998336046800524,
85,green,440,1.0,,,,,,0,84,84,84,,,,,,,,,,,,,,,,,,,,,es,002,2019_Oct_08_1109,StressSession,3.1.3,59.998336046800524,
86,green,440,1.0,,,,,,0,85,85,85,,,,,,,,,,,,,,,,,,,,,es,002,2019_Oct_08_1109,StressSession,3.1.3,59.998336046800524,
87,green,440,1.0,,,,,,0,86,86,86,,,,,,,,,,,,,,,,,,,,,es,002,2019_Oct_08_1109,StressSession,3.1.3,59.998336046800524,
88,green,440,1.0,,,,,,0,87,87,87,,,,,,,,,,,,,,,,,,,,,es,002,2019_Oct_08_1109,StressSession,3.1.3,59.998336046800524,
89,green,440,1.0,,,,,,0,88,88,88,,,,,,,,,,,,,,,,,,,,,es,002,2019_Oct_08_1109,StressSession,3.1.3,59.998336046800524,
90,green,440,1.0,,,,,,0,89,89,89,,,,,,,,,,,,,,,,,,,,,es,002,2019_Oct_08_1109,StressSession,3.1.3,59.998336046800524,
91,green,440,1.0,,,,,,0,90,90,90,,,,,,,,,,,,,,,,,,,,,es,002,2019_Oct_08_1109,StressSession,3.1.3,59.998336046800524,
92,green,440,1.0,,,,,,0,91,91,91,,,,,,,,,,,,,,,,,,,,,es,002,2019_Oct_08_1109,StressSession,3.1.3,59.998336046800524,
93,green,440,1.0,,,,,,0,92,92,92,,,,,,,,,,,,,,,,,,,,,es,002,2019_Oct_08_1109,StressSession,3.1.3,59.998336046800524,
94,green,440,1.0,,,,,,0,93,93,93,,,,,,,,,,,,,,,,,,,,,es,002,2019_Oct_08_1109,StressSession,3.1.3,59.998336046800524,
95,green,440,1.0,,,,,,0,94,94,94,,,,,,,,,,,,,,,,,,,,,es,002,2019_Oct_08_1109,StressSession,3.1.3,59.998336046800524,
96,green,440,1.0,,,,,,0,95,95,95,,,,,,,,,,,,,,,,,,,,,es,002,2019_Oct_08_1109,StressSession,3.1.3,59.998336046800524,
97,green,440,1.0,,,,,,0,96,96,96,,,,,,,,,,,,,,,,,,,,,es,002,2019_Oct_08_1109,StressSession,3.1.3,59.998336046800524,
98,green,440,1.0,,,,,,0,97,97,97,,,,,,,,,,,,,,,,,,,,,es,002,2019_Oct_08_1109,StressSession,3.1.3,59.998336046800524,
99,green,440,1.0,,,,,,0,98,98,98,,,,,,,,,,,,,,,,,,,,,es,002,2019_Oct_08_1109,StressSession,3.1.3,59.998336046800524,
100,green,440,1.0,,,,,,0,99,99,99,,,,,,,,,,,,,,,,,,,,,es,002,2019_Oct_08_1109,StressSession,3.1.3,59.998336046800524,
101,green,440,1.0,,,,,,0,100,100,100,,,,,,,,,,,,,,,,,,,,,es,002,2019_Oct_08_1109,StressSession,3.1.3,59.998336046800524,
102,green,440,1.0,,,,,,0,101,101,101,,,,,,,,,,,,,,,,,,,,,es,002,2019_Oct_08_1109,StressSession,3.1.3,59.998336046800524,
103,green,440,1.0,,,,,,0,102,102,102,,,,,,,,,,,,,,,,,,,,,es,002,2019_Oct_08_1109,StressSession,3.1.3,59.998336046800524,
104,green,440,1.0,,,,,,0,103,103,103,,,,,,,,,,,,,,,,,,,,,es,002,2019_Oct_08_1109,StressSession,3.1.3,59.998336046800524,
105,green,440,1.0,,,,,,0,104,104,104,,,,,,,,,,,,,,,,,,,,,es,002,2019_Oct_08_1109,StressSession,3.1.3,59.998336046800524,
106,green,440,1.0,,,,,,0,105,105,105,,,,,,,,,,,,,,,,,,,,,es,002,2019_Oct_08_1109,StressSession,3.1.3,59.998336046800524,
107,green,440,1.0,,,,,,0,106,106,106,,,,,,,,,,,,,,,,,,,,,es,002,2019_Oct_08_1109,StressSession,3.1.3,59.998336046800524,
108,green,440,1.0,,,,,,0,107,107,107,,,,,,,,,,,,,,,,,,,,,es,002,2019_Oct_08_1109,StressSession,3.1.3,59.998336046800524,
109,green,440,1.0,,,,,,0,108,108,108,,,,,,,,,,,,,,,,,,,,,es,002,2019_Oct_08_1109,StressSession,3.1.3,59.998336046800524,
110,green,440,1.0,,,,,,0,109,109,109,,,,,,,,,,,,,,,,,,,,,es,002,2019_Oct_08_1109,StressSession,3.1.3,59.998336046800524,
111,green,440,1.0,,,,,,0,110,110,110,,,,,,,,,,,,,,,,,,,,,es,002,2019_Oct_08_1109,StressSession,3.1.3,59.998336046800524,
112,green,440,1.0,,,,,,0,111,111,111,,,,,,,,,,,,,,,,,,,,,es,002,2019_Oct_08_1109,StressSession,3.1.3,59.998336046800524,
113,green,440,1.0,,,,,,0,112,112,112,,,,,,,,,,,,,,,,,,,,,es,002,2019_Oct_08_1109,StressSession,3.1.3,59.998336046800524,
114,green,440,1.0,,,,,,0,113,113,113,,,,,,,,,,,,,,,,,,,,,es,002,2019_Oct_08_1109,StressSession,3.1.3,59.998336046800524,
115,green,440,1.0,,,,,,0,114,114,114,,,,,,,,,,,,,,,,,,,,,es,002,2019_Oct_08_1109,StressSession,3.1.3,59.998336046800524,
116,green,440,1.0,,,,,,0,115,115,115,,,,,,,,,,,,,,,,,,,,,es,002,2019_Oct_08_1109,StressSession,3.1.3,59.998336046800524,
117,green,440,1.0,,,,,,0,116,116,116,,,,,,,,,,,,,,,,,,,,,es,002,2019_Oct_08_1109,StressSession,3.1.3,59.998336046800524,
118,green,440,1.0,,,,,,0,117,117,117,,,,,,,,,,,,,,,,,,,,,es,002,2019_Oct_08_1109,StressSession,3.1.3,59.998336046800524,
119,green,440,1.0,,,,,,0,118,118,118,,,,,,,,,,,,,,,,,,,,,es,002,2019_Oct_08_1109,StressSession,3.1.3,59.998336046800524,
120,green,440,1.0,,,,,,0,119,119,119,,,,,,,,,,,,,,,,,,,,,es,002,2019_Oct_08_1109,StressSession,3.1.3,59.998336046800524,
121,green,440,1.0,,,,,,0,120,120,120,,,,,,,,,,,,,,,,,,,,,es,002,2019_Oct_08_1109,StressSession,3.1.3,59.998336046800524,
122,green,440,1.0,,,,,,0,121,121,121,,,,,,,,,,,,,,,,,,,,,es,002,2019_Oct_08_1109,StressSession,3.1.3,59.998336046800524,
123,green,440,1.0,,,,,,0,122,122,122,,,,,,,,,,,,,,,,,,,,,es,002,2019_Oct_08_1109,StressSession,3.1.3,59.998336046800524,
124,green,440,1.0,,,,,,0,123,123,123,,,,,,,,,,,,,,,,,,,,,es,002,2019_Oct_08_1109,StressSession,3.1.3,59.998336046800524,
125,green,440,1.0,,,,,,0,124,124,124,,,,,,,,,,,,,,,,,,,,,es,002,2019_Oct_08_1109,StressSession,3.1.3,59.998336046800524,
126,green,440,1.0,,,,,,0,125,125,125,,,,,,,,,,,,,,,,,,,,,es,002,2019_Oct_08_1109,StressSession,3.1.3,59.998336046800524,
127,green,440,1.0,,,,,,0,126,126,126,,,,,,,,,,,,,,,,,,,,,es,002,2019_Oct_08_1109,StressSession,3.1.3,59.998336046800524,
128,green,440,1.0,,,,,,0,127,127,127,,,,,,,,,,,,,,,,,,,,,es,002,2019_Oct_08_1109,StressSession,3.1.3,59.998336046800524,
129,green,440,1.0,,,,,,0,128,128,128,,,,,,,,,,,,,,,,,,,,,es,002,2019_Oct_08_1109,StressSession,3.1.3,59.998336046800524,
130,green,440,1.0,,,,,,0,129,129,129,,,,,,,,,,,,,,,,,,,,,es,002,2019_Oct_08_1109,StressSession,3.1.3,59.998336046800524,
131,green,440,1.0,,,,,,0,130,130,130,,,,,,,,,,,,,,,,,,,,,es,002,2019_Oct_08_1109,StressSession,3.1.3,59.998336046800524,
132,green,440,1.0,,,,,,0,131,131,131,,,,,,,,,,,,,,,,,,,,,es,002,2019_Oct_08_1109,StressSession,3.1.3,59.998336046800524,
133,green,440,1.0,,,,,,0,132,132,132,,,,,,,,,,,,,,,,,,,,,es,002,2019_Oct_08_1109,StressSession,3.1.3,59.998336046800524,
134,green,440,1.0,,,,,,0,133,133,133,,,,,,,,,,,,,,,,,,,,,es,002,2019_Oct_08_1109,StressSession,3.1.3,59.998336046800524,
135,green,440,1.0,,,,,,0,134,134,134,,,,,,,,,,,,,,,,,,,,,es,002,2019_Oct_08_1109,StressSession,3.1.3,59.998336046800524,
136,green,440,1.0,,,,,,0,135,135,135,,,,,,,,,,,,,,,,,,,,,es,002,2019_Oct_08_1109,StressSession,3.1.3,59.998336046800524,
137,green,440,1.0,,,,,,0,136,136,136,,,,,,,,,,,,,,,,,,,,,es,002,2019_Oct_08_1109,StressSession,3.1.3,59.998336046800524,
138,green,440,1.0,,,,,,0,137,137,137,,,,,,,,,,,,,,,,,,,,,es,002,2019_Oct_08_1109,StressSession,3.1.3,59.998336046800524,
139,green,440,1.0,,,,,,0,138,138,138,,,,,,,,,,,,,,,,,,,,,es,002,2019_Oct_08_1109,StressSession,3.1.3,59.998336046800524,
140,green,440,1.0,,,,,,0,139,139,139,,,,,,,,,,,,,,,,,,,,,es,002,2019_Oct_08_1109,StressSession,3.1.3,59.998336046800524,
141,green,440,1.0,,,,,,0,140,140,140,,,,,,,,,,,,,,,,,,,,,es,002,2019_Oct_08_1109,StressSession,3.1.3,59.998336046800524,
142,green,440,1.0,,,,,,0,141,141,141,,,,,,,,,,,,,,,,,,,,,es,002,2019_Oct_08_1109,StressSession,3.1.3,59.998336046800524,
143,green,440,1.0,,,,,,0,142,142,142,,,,,,,,,,,,,,,,,,,,,es,002,2019_Oct_08_1109,StressSession,3.1.3,59.998336046800524,
144,green,440,1.0,,,,,,0,143,143,143,,,,,,,,,,,,,,,,,,,,,es,002,2019_Oct_08_1109,StressSession,3.1.3,59.998336046800524,
145,green,440,1.0,,,,,,0,144,144,144,,,,,,,,,,,,,,,,,,,,,es,002,2019_Oct_08_1109,StressSession,3.1.3,59.998336046800524,
146,green,440,1.0,,,,,,0,145,145,145,,,,,,,,,,,,,,,,,,,,,es,002,2019_Oct_08_1109,StressSession,3.1.3,59.998336046800524,
147,green,440,1.0,,,,,,0,146,146,146,,,,,,,,,,,,,,,,,,,,,es,002,2019_Oct_08_1109,StressSession,3.1.3,59.998336046800524,
148,green,440,1.0,,,,,,0,147,147,147,,,,,,,,,,,,,,,,,,,,,es,002,2019_Oct_08_1109,StressSession,3.1.3,59.998336046800524,
149,green,440,1.0,,,,,,0,148,148,148,,,,,,,,,,,,,,,,,,,,,es,002,2019_Oct_08_1109,StressSession,3.1.3,59.998336046800524,
150,green,440,1.0,,,,,,0,149,149,149,,,,,,,,,,,,,,,,,,,,,es,002,2019_Oct_08_1109,StressSession,3.1.3,59.998336046800524,
151,green,440,1.0,,,,,,0,150,150,150,,,,,,,,,,,,,,,,,,,,,es,002,2019_Oct_08_1109,StressSession,3.1.3,59.998336046800524,
152,green,440,1.0,,,,,,0,151,151,151,,,,,,,,,,,,,,,,,,,,,es,002,2019_Oct_08_1109,StressSession,3.1.3,59.998336046800524,
153,green,440,1.0,,,,,,0,152,152,152,,,,,,,,,,,,,,,,,,,,,es,002,2019_Oct_08_1109,StressSession,3.1.3,59.998336046800524,
154,green,440,1.0,,,,,,0,153,153,153,,,,,,,,,,,,,,,,,,,,,es,002,2019_Oct_08_1109,StressSession,3.1.3,59.998336046800524,
155,green,440,1.0,,,,,,0,154,154,154,,,,,,,,,,,,,,,,,,,,,es,002,2019_Oct_08_1109,StressSession,3.1.3,59.998336046800524,
156,green,440,1.0,,,,,,0,155,155,155,,,,,,,,,,,,,,,,,,,,,es,002,2019_Oct_08_1109,StressSession,3.1.3,59.998336046800524,
157,green,440,1.0,,,,,,0,156,156,156,,,,,,,,,,,,,,,,,,,,,es,002,2019_Oct_08_1109,StressSession,3.1.3,59.998336046800524,
158,green,440,1.0,,,,,,0,157,157,157,,,,,,,,,,,,,,,,,,,,,es,002,2019_Oct_08_1109,StressSession,3.1.3,59.998336046800524,
159,green,440,1.0,,,,,,0,158,158,158,,,,,,,,,,,,,,,,,,,,,es,002,2019_Oct_08_1109,StressSession,3.1.3,59.998336046800524,
160,green,440,1.0,,,,,,0,159,159,159,,,,,,,,,,,,,,,,,,,,,es,002,2019_Oct_08_1109,StressSession,3.1.3,59.998336046800524,
161,green,440,1.0,,,,,,0,160,160,160,,,,,,,,,,,,,,,,,,,,,es,002,2019_Oct_08_1109,StressSession,3.1.3,59.998336046800524,
162,green,440,1.0,,,,,,0,161,161,161,,,,,,,,,,,,,,,,,,,,,es,002,2019_Oct_08_1109,StressSession,3.1.3,59.998336046800524,
163,green,440,1.0,,,,,,0,162,162,162,,,,,,,,,,,,,,,,,,,,,es,002,2019_Oct_08_1109,StressSession,3.1.3,59.998336046800524,
164,green,440,1.0,,,,,,0,163,163,163,,,,,,,,,,,,,,,,,,,,,es,002,2019_Oct_08_1109,StressSession,3.1.3,59.998336046800524,
165,green,440,1.0,,,,,,0,164,164,164,,,,,,,,,,,,,,,,,,,,,es,002,2019_Oct_08_1109,StressSession,3.1.3,59.998336046800524,
166,green,440,1.0,,,,,,0,165,165,165,,,,,,,,,,,,,,,,,,,,,es,002,2019_Oct_08_1109,StressSession,3.1.3,59.998336046800524,
167,green,440,1.0,,,,,,0,166,166,166,,,,,,,,,,,,,,,,,,,,,es,002,2019_Oct_08_1109,StressSession,3.1.3,59.998336046800524,
168,green,440,1.0,,,,,,0,167,167,167,,,,,,,,,,,,,,,,,,,,,es,002,2019_Oct_08_1109,StressSession,3.1.3,59.998336046800524,
169,green,440,1.0,,,,,,0,168,168,168,,,,,,,,,,,,,,,,,,,,,es,002,2019_Oct_08_1109,StressSession,3.1.3,59.998336046800524,
170,green,440,1.0,,,,,,0,169,169,169,,,,,,,,,,,,,,,,,,,,,es,002,2019_Oct_08_1109,StressSession,3.1.3,59.998336046800524,
171,green,440,1.0,,,,,,0,170,170,170,,,,,,,,,,,,,,,,,,,,,es,002,2019_Oct_08_1109,StressSession,3.1.3,59.998336046800524,
172,green,440,1.0,,,,,,0,171,171,171,,,,,,,,,,,,,,,,,,,,,es,002,2019_Oct_08_1109,StressSession,3.1.3,59.998336046800524,
173,green,440,1.0,,,,,,0,172,172,172,,,,,,,,,,,,,,,,,,,,,es,002,2019_Oct_08_1109,StressSession,3.1.3,59.998336046800524,
174,green,440,1.0,,,,,,0,173,173,173,,,,,,,,,,,,,,,,,,,,,es,002,2019_Oct_08_1109,StressSession,3.1.3,59.998336046800524,
175,green,440,1.0,,,,,,0,174,174,174,,,,,,,,,,,,,,,,,,,,,es,002,2019_Oct_08_1109,StressSession,3.1.3,59.998336046800524,
176,green,440,1.0,,,,,,0,175,175,175,,,,,,,,,,,,,,,,,,,,,es,002,2019_Oct_08_1109,StressSession,3.1.3,59.998336046800524,
177,green,440,1.0,,,,,,0,176,176,176,,,,,,,,,,,,,,,,,,,,,es,002,2019_Oct_08_1109,StressSession,3.1.3,59.998336046800524,
178,green,440,1.0,,,,,,0,177,177,177,,,,,,,,,,,,,,,,,,,,,es,002,2019_Oct_08_1109,StressSession,3.1.3,59.998336046800524,
179,green,440,1.0,,,,,,0,178,178,178,,,,,,,,,,,,,,,,,,,,,es,002,2019_Oct_08_1109,StressSession,3.1.3,59.998336046800524,
180,yellow,880,0.5,,,,,,0,179,179,179,,,,,,,,,,,,,,,,,,,,,es,002,2019_Oct_08_1109,StressSession,3.1.3,59.998336046800524,
181,yellow,880,0.5,,,,,,0,180,180,180,,,,,,,,,,,,,,,,,,,,,es,002,2019_Oct_08_1109,StressSession,3.1.3,59.998336046800524,
182,yellow,880,0.5,,,,,,0,181,181,181,,,,,,,,,,,,,,,,,,,,,es,002,2019_Oct_08_1109,StressSession,3.1.3,59.998336046800524,
183,yellow,880,0.5,,,,,,0,182,182,182,,,,,,,,,,,,,,,,,,,,,es,002,2019_Oct_08_1109,StressSession,3.1.3,59.998336046800524,
184,yellow,880,0.5,,,,,,0,183,183,183,,,,,,,,,,,,,,,,,,,,,es,002,2019_Oct_08_1109,StressSession,3.1.3,59.998336046800524,
185,yellow,880,0.5,,,,,,0,184,184,184,,,,,,,,,,,,,,,,,,,,,es,002,2019_Oct_08_1109,StressSession,3.1.3,59.998336046800524,
186,yellow,880,0.5,,,,,,0,185,185,185,,,,,,,,,,,,,,,,,,,,,es,002,2019_Oct_08_1109,StressSession,3.1.3,59.998336046800524,
187,yellow,880,0.5,,,,,,0,186,186,186,,,,,,,,,,,,,,,,,,,,,es,002,2019_Oct_08_1109,StressSession,3.1.3,59.998336046800524,
188,yellow,880,0.5,,,,,,0,187,187,187,,,,,,,,,,,,,,,,,,,,,es,002,2019_Oct_08_1109,StressSession,3.1.3,59.998336046800524,
189,yellow,880,0.5,,,,,,0,188,188,188,,,,,,,,,,,,,,,,,,,,,es,002,2019_Oct_08_1109,StressSession,3.1.3,59.998336046800524,
190,yellow,880,0.5,,,,,,0,189,189,189,,,,,,,,,,,,,,,,,,,,,es,002,2019_Oct_08_1109,StressSession,3.1.3,59.998336046800524,
191,yellow,880,0.5,,,,,,0,190,190,190,,,,,,,,,,,,,,,,,,,,,es,002,2019_Oct_08_1109,StressSession,3.1.3,59.998336046800524,
192,yellow,880,0.5,,,,,,0,191,191,191,,,,,,,,,,,,,,,,,,,,,es,002,2019_Oct_08_1109,StressSession,3.1.3,59.998336046800524,
193,yellow,880,0.5,,,,,,0,192,192,192,,,,,,,,,,,,,,,,,,,,,es,002,2019_Oct_08_1109,StressSession,3.1.3,59.998336046800524,
194,yellow,880,0.5,,,,,,0,193,193,193,,,,,,,,,,,,,,,,,,,,,es,002,2019_Oct_08_1109,StressSession,3.1.3,59.998336046800524,
195,yellow,880,0.5,,,,,,0,194,194,194,,,,,,,,,,,,,,,,,,,,,es,002,2019_Oct_08_1109,StressSession,3.1.3,59.998336046800524,
196,yellow,880,0.5,,,,,,0,195,195,195,,,,,,,,,,,,,,,,,,,,,es,002,2019_Oct_08_1109,StressSession,3.1.3,59.998336046800524,
197,yellow,880,0.5,,,,,,0,196,196,196,,,,,,,,,,,,,,,,,,,,,es,002,2019_Oct_08_1109,StressSession,3.1.3,59.998336046800524,
198,yellow,880,0.5,,,,,,0,197,197,197,,,,,,,,,,,,,,,,,,,,,es,002,2019_Oct_08_1109,StressSession,3.1.3,59.998336046800524,
199,yellow,880,0.5,,,,,,0,198,198,198,,,,,,,,,,,,,,,,,,,,,es,002,2019_Oct_08_1109,StressSession,3.1.3,59.998336046800524,
200,yellow,880,0.5,,,,,,0,199,199,199,,,,,,,,,,,,,,,,,,,,,es,002,2019_Oct_08_1109,StressSession,3.1.3,59.998336046800524,
201,yellow,880,0.5,,,,,,0,200,200,200,,,,,,,,,,,,,,,,,,,,,es,002,2019_Oct_08_1109,StressSession,3.1.3,59.998336046800524,
202,yellow,880,0.5,,,,,,0,201,201,201,,,,,,,,,,,,,,,,,,,,,es,002,2019_Oct_08_1109,StressSession,3.1.3,59.998336046800524,
203,yellow,880,0.5,,,,,,0,202,202,202,,,,,,,,,,,,,,,,,,,,,es,002,2019_Oct_08_1109,StressSession,3.1.3,59.998336046800524,
204,yellow,880,0.5,,,,,,0,203,203,203,,,,,,,,,,,,,,,,,,,,,es,002,2019_Oct_08_1109,StressSession,3.1.3,59.998336046800524,
205,yellow,880,0.5,,,,,,0,204,204,204,,,,,,,,,,,,,,,,,,,,,es,002,2019_Oct_08_1109,StressSession,3.1.3,59.998336046800524,
206,yellow,880,0.5,,,,,,0,205,205,205,,,,,,,,,,,,,,,,,,,,,es,002,2019_Oct_08_1109,StressSession,3.1.3,59.998336046800524,
207,yellow,880,0.5,,,,,,0,206,206,206,,,,,,,,,,,,,,,,,,,,,es,002,2019_Oct_08_1109,StressSession,3.1.3,59.998336046800524,
208,yellow,880,0.5,,,,,,0,207,207,207,,,,,,,,,,,,,,,,,,,,,es,002,2019_Oct_08_1109,StressSession,3.1.3,59.998336046800524,
209,yellow,880,0.5,,,,,,0,208,208,208,,,,,,,,,,,,,,,,,,,,,es,002,2019_Oct_08_1109,StressSession,3.1.3,59.998336046800524,
210,yellow,880,0.5,,,,,,0,209,209,209,,,,,,,,,,,,,,,,,,,,,es,002,2019_Oct_08_1109,StressSession,3.1.3,59.998336046800524,
211,yellow,880,0.5,,,,,,0,210,210,210,,,,,,,,,,,,,,,,,,,,,es,002,2019_Oct_08_1109,StressSession,3.1.3,59.998336046800524,
212,yellow,880,0.5,,,,,,0,211,211,211,,,,,,,,,,,,,,,,,,,,,es,002,2019_Oct_08_1109,StressSession,3.1.3,59.998336046800524,
213,yellow,880,0.5,,,,,,0,212,212,212,,,,,,,,,,,,,,,,,,,,,es,002,2019_Oct_08_1109,StressSession,3.1.3,59.998336046800524,
214,yellow,880,0.5,,,,,,0,213,213,213,,,,,,,,,,,,,,,,,,,,,es,002,2019_Oct_08_1109,StressSession,3.1.3,59.998336046800524,
215,yellow,880,0.5,,,,,,0,214,214,214,,,,,,,,,,,,,,,,,,,,,es,002,2019_Oct_08_1109,StressSession,3.1.3,59.998336046800524,
216,yellow,880,0.5,,,,,,0,215,215,215,,,,,,,,,,,,,,,,,,,,,es,002,2019_Oct_08_1109,StressSession,3.1.3,59.998336046800524,
217,yellow,880,0.5,,,,,,0,216,216,216,,,,,,,,,,,,,,,,,,,,,es,002,2019_Oct_08_1109,StressSession,3.1.3,59.998336046800524,
218,yellow,880,0.5,,,,,,0,217,217,217,,,,,,,,,,,,,,,,,,,,,es,002,2019_Oct_08_1109,StressSession,3.1.3,59.998336046800524,
219,yellow,880,0.5,,,,,,0,218,218,218,,,,,,,,,,,,,,,,,,,,,es,002,2019_Oct_08_1109,StressSession,3.1.3,59.998336046800524,
220,yellow,880,0.5,,,,,,0,219,219,219,,,,,,,,,,,,,,,,,,,,,es,002,2019_Oct_08_1109,StressSession,3.1.3,59.998336046800524,
221,yellow,880,0.5,,,,,,0,220,220,220,,,,,,,,,,,,,,,,,,,,,es,002,2019_Oct_08_1109,StressSession,3.1.3,59.998336046800524,
222,yellow,880,0.5,,,,,,0,221,221,221,,,,,,,,,,,,,,,,,,,,,es,002,2019_Oct_08_1109,StressSession,3.1.3,59.998336046800524,
223,yellow,880,0.5,,,,,,0,222,222,222,,,,,,,,,,,,,,,,,,,,,es,002,2019_Oct_08_1109,StressSession,3.1.3,59.998336046800524,
224,yellow,880,0.5,,,,,,0,223,223,223,,,,,,,,,,,,,,,,,,,,,es,002,2019_Oct_08_1109,StressSession,3.1.3,59.998336046800524,
225,yellow,880,0.5,,,,,,0,224,224,224,,,,,,,,,,,,,,,,,,,,,es,002,2019_Oct_08_1109,StressSession,3.1.3,59.998336046800524,
226,yellow,880,0.5,,,,,,0,225,225,225,,,,,,,,,,,,,,,,,,,,,es,002,2019_Oct_08_1109,StressSession,3.1.3,59.998336046800524,
227,yellow,880,0.5,,,,,,0,226,226,226,,,,,,,,,,,,,,,,,,,,,es,002,2019_Oct_08_1109,StressSession,3.1.3,59.998336046800524,
228,yellow,880,0.5,,,,,,0,227,227,227,,,,,,,,,,,,,,,,,,,,,es,002,2019_Oct_08_1109,StressSession,3.1.3,59.998336046800524,
229,yellow,880,0.5,,,,,,0,228,228,228,,,,,,,,,,,,,,,,,,,,,es,002,2019_Oct_08_1109,StressSession,3.1.3,59.998336046800524,
230,yellow,880,0.5,,,,,,0,229,229,229,,,,,,,,,,,,,,,,,,,,,es,002,2019_Oct_08_1109,StressSession,3.1.3,59.998336046800524,
231,yellow,880,0.5,,,,,,0,230,230,230,,,,,,,,,,,,,,,,,,,,,es,002,2019_Oct_08_1109,StressSession,3.1.3,59.998336046800524,
232,yellow,880,0.5,,,,,,0,231,231,231,,,,,,,,,,,,,,,,,,,,,es,002,2019_Oct_08_1109,StressSession,3.1.3,59.998336046800524,
233,yellow,880,0.5,,,,,,0,232,232,232,,,,,,,,,,,,,,,,,,,,,es,002,2019_Oct_08_1109,StressSession,3.1.3,59.998336046800524,
234,yellow,880,0.5,,,,,,0,233,233,233,,,,,,,,,,,,,,,,,,,,,es,002,2019_Oct_08_1109,StressSession,3.1.3,59.998336046800524,
235,yellow,880,0.5,,,,,,0,234,234,234,,,,,,,,,,,,,,,,,,,,,es,002,2019_Oct_08_1109,StressSession,3.1.3,59.998336046800524,
236,yellow,880,0.5,,,,,,0,235,235,235,,,,,,,,,,,,,,,,,,,,,es,002,2019_Oct_08_1109,StressSession,3.1.3,59.998336046800524,
237,yellow,880,0.5,,,,,,0,236,236,236,,,,,,,,,,,,,,,,,,,,,es,002,2019_Oct_08_1109,StressSession,3.1.3,59.998336046800524,
238,yellow,880,0.5,,,,,,0,237,237,237,,,,,,,,,,,,,,,,,,,,,es,002,2019_Oct_08_1109,StressSession,3.1.3,59.998336046800524,
239,yellow,880,0.5,,,,,,0,238,238,238,,,,,,,,,,,,,,,,,,,,,es,002,2019_Oct_08_1109,StressSession,3.1.3,59.998336046800524,
240,red,1760,0.5,,,,,,0,239,239,239,,,,,,,,,,,,,,,,,,,,,es,002,2019_Oct_08_1109,StressSession,3.1.3,59.998336046800524,
241,red,1760,0.5,,,,,,0,240,240,240,,,,,,,,,,,,,,,,,,,,,es,002,2019_Oct_08_1109,StressSession,3.1.3,59.998336046800524,
242,red,1760,0.5,,,,,,0,241,241,241,,,,,,,,,,,,,,,,,,,,,es,002,2019_Oct_08_1109,StressSession,3.1.3,59.998336046800524,
243,red,1760,0.5,,,,,,0,242,242,242,,,,,,,,,,,,,,,,,,,,,es,002,2019_Oct_08_1109,StressSession,3.1.3,59.998336046800524,
244,red,1760,0.5,,,,,,0,243,243,243,,,,,,,,,,,,,,,,,,,,,es,002,2019_Oct_08_1109,StressSession,3.1.3,59.998336046800524,
245,red,1760,0.5,,,,,,0,244,244,244,,,,,,,,,,,,,,,,,,,,,es,002,2019_Oct_08_1109,StressSession,3.1.3,59.998336046800524,
246,red,1760,0.5,,,,,,0,245,245,245,,,,,,,,,,,,,,,,,,,,,es,002,2019_Oct_08_1109,StressSession,3.1.3,59.998336046800524,
247,red,1760,0.5,,,,,,0,246,246,246,,,,,,,,,,,,,,,,,,,,,es,002,2019_Oct_08_1109,StressSession,3.1.3,59.998336046800524,
248,red,1760,0.5,,,,,,0,247,247,247,,,,,,,,,,,,,,,,,,,,,es,002,2019_Oct_08_1109,StressSession,3.1.3,59.998336046800524,
249,red,1760,0.5,,,,,,0,248,248,248,,,,,,,,,,,,,,,,,,,,,es,002,2019_Oct_08_1109,StressSession,3.1.3,59.998336046800524,
250,red,1760,0.5,,,,,,0,249,249,249,,,,,,,,,,,,,,,,,,,,,es,002,2019_Oct_08_1109,StressSession,3.1.3,59.998336046800524,
251,red,1760,0.5,,,,,,0,250,250,250,,,,,,,,,,,,,,,,,,,,,es,002,2019_Oct_08_1109,StressSession,3.1.3,59.998336046800524,
252,red,1760,0.5,,,,,,0,251,251,251,,,,,,,,,,,,,,,,,,,,,es,002,2019_Oct_08_1109,StressSession,3.1.3,59.998336046800524,
253,red,1760,0.5,,,,,,0,252,252,252,,,,,,,,,,,,,,,,,,,,,es,002,2019_Oct_08_1109,StressSession,3.1.3,59.998336046800524,
254,red,1760,0.5,,,,,,0,253,253,253,,,,,,,,,,,,,,,,,,,,,es,002,2019_Oct_08_1109,StressSession,3.1.3,59.998336046800524,
255,red,1760,0.5,,,,,,0,254,254,254,,,,,,,,,,,,,,,,,,,,,es,002,2019_Oct_08_1109,StressSession,3.1.3,59.998336046800524,
256,red,1760,0.5,,,,,,0,255,255,255,,,,,,,,,,,,,,,,,,,,,es,002,2019_Oct_08_1109,StressSession,3.1.3,59.998336046800524,
257,red,1760,0.5,,,,,,0,256,256,256,,,,,,,,,,,,,,,,,,,,,es,002,2019_Oct_08_1109,StressSession,3.1.3,59.998336046800524,
258,red,1760,0.5,,,,,,0,257,257,257,,,,,,,,,,,,,,,,,,,,,es,002,2019_Oct_08_1109,StressSession,3.1.3,59.998336046800524,
259,red,1760,0.5,,,,,,0,258,258,258,,,,,,,,,,,,,,,,,,,,,es,002,2019_Oct_08_1109,StressSession,3.1.3,59.998336046800524,
260,red,1760,0.5,,,,,,0,259,259,259,,,,,,,,,,,,,,,,,,,,,es,002,2019_Oct_08_1109,StressSession,3.1.3,59.998336046800524,
261,red,1760,0.5,,,,,,0,260,260,260,,,,,,,,,,,,,,,,,,,,,es,002,2019_Oct_08_1109,StressSession,3.1.3,59.998336046800524,
262,red,1760,0.5,,,,,,0,261,261,261,,,,,,,,,,,,,,,,,,,,,es,002,2019_Oct_08_1109,StressSession,3.1.3,59.998336046800524,
263,red,1760,0.5,,,,,,0,262,262,262,,,,,,,,,,,,,,,,,,,,,es,002,2019_Oct_08_1109,StressSession,3.1.3,59.998336046800524,
264,red,1760,0.5,,,,,,0,263,263,263,,,,,,,,,,,,,,,,,,,,,es,002,2019_Oct_08_1109,StressSession,3.1.3,59.998336046800524,
265,red,1760,0.5,,,,,,0,264,264,264,,,,,,,,,,,,,,,,,,,,,es,002,2019_Oct_08_1109,StressSession,3.1.3,59.998336046800524,
266,red,1760,0.5,,,,,,0,265,265,265,,,,,,,,,,,,,,,,,,,,,es,002,2019_Oct_08_1109,StressSession,3.1.3,59.998336046800524,
267,red,1760,0.5,,,,,,0,266,266,266,,,,,,,,,,,,,,,,,,,,,es,002,2019_Oct_08_1109,StressSession,3.1.3,59.998336046800524,
268,red,1760,0.5,,,,,,0,267,267,267,,,,,,,,,,,,,,,,,,,,,es,002,2019_Oct_08_1109,StressSession,3.1.3,59.998336046800524,
269,red,1760,0.5,,,,,,0,268,268,268,,,,,,,,,,,,,,,,,,,,,es,002,2019_Oct_08_1109,StressSession,3.1.3,59.998336046800524,
270,red,1760,0.5,,,,,,0,269,269,269,,,,,,,,,,,,,,,,,,,,,es,002,2019_Oct_08_1109,StressSession,3.1.3,59.998336046800524,
271,red,1760,0.5,,,,,,0,270,270,270,,,,,,,,,,,,,,,,,,,,,es,002,2019_Oct_08_1109,StressSession,3.1.3,59.998336046800524,
272,red,1760,0.5,,,,,,0,271,271,271,,,,,,,,,,,,,,,,,,,,,es,002,2019_Oct_08_1109,StressSession,3.1.3,59.998336046800524,
273,red,1760,0.5,,,,,,0,272,272,272,,,,,,,,,,,,,,,,,,,,,es,002,2019_Oct_08_1109,StressSession,3.1.3,59.998336046800524,
274,red,1760,0.5,,,,,,0,273,273,273,,,,,,,,,,,,,,,,,,,,,es,002,2019_Oct_08_1109,StressSession,3.1.3,59.998336046800524,
275,red,1760,0.5,,,,,,0,274,274,274,,,,,,,,,,,,,,,,,,,,,es,002,2019_Oct_08_1109,StressSession,3.1.3,59.998336046800524,
276,red,1760,0.5,,,,,,0,275,275,275,,,,,,,,,,,,,,,,,,,,,es,002,2019_Oct_08_1109,StressSession,3.1.3,59.998336046800524,
277,red,1760,0.5,,,,,,0,276,276,276,,,,,,,,,,,,,,,,,,,,,es,002,2019_Oct_08_1109,StressSession,3.1.3,59.998336046800524,
278,red,1760,0.5,,,,,,0,277,277,277,,,,,,,,,,,,,,,,,,,,,es,002,2019_Oct_08_1109,StressSession,3.1.3,59.998336046800524,
279,red,1760,0.5,,,,,,0,278,278,278,,,,,,,,,,,,,,,,,,,,,es,002,2019_Oct_08_1109,StressSession,3.1.3,59.998336046800524,
280,red,1760,0.5,,,,,,0,279,279,279,,,,,,,,,,,,,,,,,,,,,es,002,2019_Oct_08_1109,StressSession,3.1.3,59.998336046800524,
281,red,1760,0.5,,,,,,0,280,280,280,,,,,,,,,,,,,,,,,,,,,es,002,2019_Oct_08_1109,StressSession,3.1.3,59.998336046800524,
282,red,1760,0.5,,,,,,0,281,281,281,,,,,,,,,,,,,,,,,,,,,es,002,2019_Oct_08_1109,StressSession,3.1.3,59.998336046800524,
283,red,1760,0.5,,,,,,0,282,282,282,,,,,,,,,,,,,,,,,,,,,es,002,2019_Oct_08_1109,StressSession,3.1.3,59.998336046800524,
284,red,1760,0.5,,,,,,0,283,283,283,,,,,,,,,,,,,,,,,,,,,es,002,2019_Oct_08_1109,StressSession,3.1.3,59.998336046800524,
285,red,1760,0.5,,,,,,0,284,284,284,,,,,,,,,,,,,,,,,,,,,es,002,2019_Oct_08_1109,StressSession,3.1.3,59.998336046800524,
286,red,1760,0.5,,,,,,0,285,285,285,,,,,,,,,,,,,,,,,,,,,es,002,2019_Oct_08_1109,StressSession,3.1.3,59.998336046800524,
287,red,1760,0.5,,,,,,0,286,286,286,,,,,,,,,,,,,,,,,,,,,es,002,2019_Oct_08_1109,StressSession,3.1.3,59.998336046800524,
288,red,1760,0.5,,,,,,0,287,287,287,,,,,,,,,,,,,,,,,,,,,es,002,2019_Oct_08_1109,StressSession,3.1.3,59.998336046800524,
289,red,1760,0.5,,,,,,0,288,288,288,,,,,,,,,,,,,,,,,,,,,es,002,2019_Oct_08_1109,StressSession,3.1.3,59.998336046800524,
290,red,1760,0.5,,,,,,0,289,289,289,,,,,,,,,,,,,,,,,,,,,es,002,2019_Oct_08_1109,StressSession,3.1.3,59.998336046800524,
291,red,1760,0.5,,,,,,0,290,290,290,,,,,,,,,,,,,,,,,,,,,es,002,2019_Oct_08_1109,StressSession,3.1.3,59.998336046800524,
292,red,1760,0.5,,,,,,0,291,291,291,,,,,,,,,,,,,,,,,,,,,es,002,2019_Oct_08_1109,StressSession,3.1.3,59.998336046800524,
293,red,1760,0.5,,,,,,0,292,292,292,,,,,,,,,,,,,,,,,,,,,es,002,2019_Oct_08_1109,StressSession,3.1.3,59.998336046800524,
294,red,1760,0.5,,,,,,0,293,293,293,,,,,,,,,,,,,,,,,,,,,es,002,2019_Oct_08_1109,StressSession,3.1.3,59.998336046800524,
295,red,1760,0.5,,,,,,0,294,294,294,,,,,,,,,,,,,,,,,,,,,es,002,2019_Oct_08_1109,StressSession,3.1.3,59.998336046800524,
296,red,1760,0.5,,,,,,0,295,295,295,,,,,,,,,,,,,,,,,,,,,es,002,2019_Oct_08_1109,StressSession,3.1.3,59.998336046800524,
297,red,1760,0.5,,,,,,0,296,296,296,,,,,,,,,,,,,,,,,,,,,es,002,2019_Oct_08_1109,StressSession,3.1.3,59.998336046800524,
298,red,1760,0.5,,,,,,0,297,297,297,,,,,,,,,,,,,,,,,,,,,es,002,2019_Oct_08_1109,StressSession,3.1.3,59.998336046800524,
299,red,1760,0.5,,,,,,0,298,298,298,,,,,,,,,,,,,,,,,,,,,es,002,2019_Oct_08_1109,StressSession,3.1.3,59.998336046800524,
300,red,1760,0.5,,,,,,0,299,299,299,,,,,,,,,,,,,,,,,,,,,es,002,2019_Oct_08_1109,StressSession,3.1.3,59.998336046800524,
,,,,,,,,,,,,,,,,,,,2019-10-08_11:17:32,10,12.008,,,,,,,,,,,,es,002,2019_Oct_08_1109,StressSession,3.1.3,59.998336046800524,
,,,,,,,,,,,,,,,,,,,,,,10,8.192,,,,,,,,,,es,002,2019_Oct_08_1109,StressSession,3.1.3,59.998336046800524,
,,,,yellow,green,yellow,green,right,,,,,0,0,0,57,,,,,,,,2019-10-08_11:19:39,left,1.0137100741503673,632.580301405738,None,,,,,es,002,2019_Oct_08_1109,StressSession,3.1.3,59.998336046800524,
,,,,green,yellow,green,yellow,right,,,,,0,1,1,22,,,,,,,,,right,1.7023173536779268,634.1312669306594,None,,,,,es,002,2019_Oct_08_1109,StressSession,3.1.3,59.998336046800524,
,,,,cyan,yellow,cyan,yellow,right,,,,,0,2,2,40,,,,,,,,,right,1.3439874798987148,636.3694658690279,None,,,,,es,002,2019_Oct_08_1109,StressSession,3.1.3,59.998336046800524,
,,,,blue,purple,blue,purple,right,,,,,0,3,3,15,,,,,,,,,right,1.0632379463518191,638.2588167429049,None,,,,,es,002,2019_Oct_08_1109,StressSession,3.1.3,59.998336046800524,
,,,,orange,brown,brown,orange,left,,,,,0,4,4,171,,,,,,,,,left,1.3551806484563258,639.8542439021892,None,,,,,es,002,2019_Oct_08_1109,StressSession,3.1.3,59.998336046800524,
,,,,red,orange,red,orange,right,,,,,0,5,5,5,,,,,,,,,right,1.3249176213685132,641.7406669906488,None,,,,,es,002,2019_Oct_08_1109,StressSession,3.1.3,59.998336046800524,
,,,,purple,magenta,purple,magenta,right,,,,,0,6,6,76,,,,,,,,,left,1.0890772953271153,643.6085992069977,None,,,,,es,002,2019_Oct_08_1109,StressSession,3.1.3,59.998336046800524,
,,,,red,green,green,red,left,,,,,0,7,7,111,,,,,,,,,left,1.7422866166243693,645.2272907830227,None,,,,,es,002,2019_Oct_08_1109,StressSession,3.1.3,59.998336046800524,
,,,,red,black,black,red,left,,,,,0,8,8,119,,,,,,,,,left,0.9468416226809495,647.5028221854625,None,,,,,es,002,2019_Oct_08_1109,StressSession,3.1.3,59.998336046800524,
,,,,black,yellow,black,yellow,right,,,,,0,9,9,105,,,,,,,,,right,0.6564754532371353,648.9769847564864,None,,,,,es,002,2019_Oct_08_1109,StressSession,3.1.3,59.998336046800524,
,,,,red,purple,red,purple,right,,,,,0,10,10,6,,,,,,,,,right,0.7935326747592626,650.1759354982676,None,,,,,es,002,2019_Oct_08_1109,StressSession,3.1.3,59.998336046800524,
,,,,yellow,black,yellow,black,right,,,,,0,11,11,54,,,,,,,,,right,0.7221121185655193,651.5113102885075,None,,,,,es,002,2019_Oct_08_1109,StressSession,3.1.3,59.998336046800524,
,,,,red,black,red,black,right,,,,,0,12,12,9,,,,,,,,,right,0.684664454543281,652.7647365270457,None,,,,,es,002,2019_Oct_08_1109,StressSession,3.1.3,59.998336046800524,
,,,,white,green,green,white,left,,,,,0,13,13,203,,,,,,,,,left,0.7730612168272728,653.9967718413773,None,,,,,es,002,2019_Oct_08_1109,StressSession,3.1.3,59.998336046800524,
,,,,cyan,white,white,cyan,left,,,,,0,14,14,154,,,,,,,,,right,0.783648092310159,655.3058268561806,None,,,,,es,002,2019_Oct_08_1109,StressSession,3.1.3,59.998336046800524,
,,,,purple,green,green,purple,left,,,,,0,15,15,185,,,,,,,,,left,1.5058587708335835,656.6235854406036,None,,,,,es,002,2019_Oct_08_1109,StressSession,3.1.3,59.998336046800524,
,,,,orange,blue,orange,blue,right,,,,,0,16,16,65,,,,,,,,,right,0.8969928972830985,658.6724349130943,None,,,,,es,002,2019_Oct_08_1109,StressSession,3.1.3,59.998336046800524,
,,,,purple,cyan,purple,cyan,right,,,,,0,17,17,77,,,,,,,,,right,0.8097485611738193,660.1041390489006,None,,,,,es,002,2019_Oct_08_1109,StressSession,3.1.3,59.998336046800524,
,,,,yellow,magenta,yellow,magenta,right,,,,,0,18,18,58,,,,,,,,,right,1.0838506308903106,661.4538289263662,None,,,,,es,002,2019_Oct_08_1109,StressSession,3.1.3,59.998336046800524,
,,,,white,magenta,white,magenta,right,,,,,0,19,19,94,,,,,,,,,right,1.2602631422878403,663.0614237604591,None,,,,,es,002,2019_Oct_08_1109,StressSession,3.1.3,59.998336046800524,
,,,,brown,magenta,brown,magenta,right,,,,,0,20,20,85,,,,,,,,,right,1.4642737219098763,664.8572591542361,None,,,,,es,002,2019_Oct_08_1109,StressSession,3.1.3,59.998336046800524,
,,,,white,purple,purple,white,left,,,,,0,21,21,208,,,,,,,,,left,0.7517539192515414,666.8656294973314,None,,,,,es,002,2019_Oct_08_1109,StressSession,3.1.3,59.998336046800524,
,,,,green,brown,green,brown,right,,,,,0,22,22,25,,,,,,,,,right,1.168554168083574,668.1454288446171,None,,,,,es,002,2019_Oct_08_1109,StressSession,3.1.3,59.998336046800524,
,,,,cyan,blue,blue,cyan,left,,,,,0,23,23,157,,,,,,,,,left,1.0793232728219664,669.8425233738567,None,,,,,es,002,2019_Oct_08_1109,StressSession,3.1.3,59.998336046800524,
,,,,magenta,red,red,magenta,left,,,,,0,24,24,147,,,,,,,,,left,0.9556428989255892,671.4699628928158,None,,,,,es,002,2019_Oct_08_1109,StressSession,3.1.3,59.998336046800524,
,,,,blue,white,blue,white,right,,,,,0,25,25,17,,,,,,,,,right,0.8209289297369651,672.957050898325,None,,,,,es,002,2019_Oct_08_1109,StressSession,3.1.3,59.998336046800524,
,,,,green,blue,green,blue,right,,,,,0,26,26,29,,,,,,,,,right,0.9509346342679237,674.3068299490858,None,,,,,es,002,2019_Oct_08_1109,StressSession,3.1.3,59.998336046800524,
,,,,yellow,green,green,yellow,left,,,,,0,27,27,167,,,,,,,,,left,0.6893377325493475,675.7845056919443,None,,,,,es,002,2019_Oct_08_1109,StressSession,3.1.3,59.998336046800524,
,,,,cyan,brown,cyan,brown,right,,,,,0,28,28,43,,,,,,,,,right,1.1021486497500064,677.0038327450313,None,,,,,es,002,2019_Oct_08_1109,StressSession,3.1.3,59.998336046800524,
,,,,black,white,black,white,right,,,,,0,29,29,109,,,,,,,,,right,1.1949157568360533,678.6389770073697,None,,,,,es,002,2019_Oct_08_1109,StressSession,3.1.3,59.998336046800524,
,,,,purple,brown,purple,brown,right,,,,,0,30,30,70,,,,,,,,,right,1.0626303732776705,680.3713338148975,None,,,,,es,002,2019_Oct_08_1109,StressSession,3.1.3,59.998336046800524,
,,,,orange,black,black,orange,left,,,,,0,31,31,173,,,,,,,,,left,0.9980313608398319,681.9719155319826,None,,,,,es,002,2019_Oct_08_1109,StressSession,3.1.3,59.998336046800524,
,,,,yellow,blue,blue,yellow,left,,,,,0,32,32,166,,,,,,,,,right,1.4122123041227042,683.5016804259496,None,,,,,es,002,2019_Oct_08_1109,StressSession,3.1.3,59.998336046800524,
,,,,orange,green,green,orange,left,,,,,0,33,33,176,,,,,,,,,left,1.2299361152272468,685.4518880205278,None,,,,,es,002,2019_Oct_08_1109,StressSession,3.1.3,59.998336046800524,
,,,,yellow,red,red,yellow,left,,,,,0,34,34,165,,,,,,,,,left,0.7713532708892217,687.2141545752941,None,,,,,es,002,2019_Oct_08_1109,StressSession,3.1.3,59.998336046800524,
,,,,purple,black,purple,black,right,,,,,0,35,35,72,,,,,,,,,right,1.069079863859315,688.5324592928173,None,,,,,es,002,2019_Oct_08_1109,StressSession,3.1.3,59.998336046800524,
,,,,cyan,red,cyan,red,right,,,,,0,36,36,46,,,,,,,,,right,0.6596694785409909,690.142004846078,None,,,,,es,002,2019_Oct_08_1109,StressSession,3.1.3,59.998336046800524,
,,,,black,magenta,magenta,black,left,,,,,0,37,37,213,,,,,,,,,left,0.734313926692721,691.347045398594,None,,,,,es,002,2019_Oct_08_1109,StressSession,3.1.3,59.998336046800524,
,,,,purple,orange,orange,purple,left,,,,,0,38,38,189,,,,,,,,,left,1.261304635176657,692.6124140320367,None,,,,,es,002,2019_Oct_08_1109,StressSession,3.1.3,59.998336046800524,
,,,,black,orange,black,orange,right,,,,,0,39,39,106,,,,,,,,,right,0.9413133050395572,694.4125817972983,None,,,,,es,002,2019_Oct_08_1109,StressSession,3.1.3,59.998336046800524,
,,,,brown,orange,brown,orange,right,,,,,0,40,40,88,,,,,,,,,right,0.5962975589129655,695.8850423957151,None,,,,,es,002,2019_Oct_08_1109,StressSession,3.1.3,59.998336046800524,
,,,,blue,red,red,blue,left,,,,,0,41,41,129,,,,,,,,,left,0.774418016248319,697.019255458451,None,,,,,es,002,2019_Oct_08_1109,StressSession,3.1.3,59.998336046800524,
,,,,yellow,orange,yellow,orange,right,,,,,0,42,42,50,,,,,,,,,left,1.0292078808711267,698.3407281746227,None,,,,,es,002,2019_Oct_08_1109,StressSession,3.1.3,59.998336046800524,
,,,,brown,purple,brown,purple,right,,,,,0,43,43,89,,,,,,,,,right,1.6182977628595836,699.9036143344579,None,,,,,es,002,2019_Oct_08_1109,StressSession,3.1.3,59.998336046800524,
,,,,orange,white,orange,white,right,,,,,0,44,44,62,,,,,,,,,right,0.7955452605672235,702.0542886168369,None,,,,,es,002,2019_Oct_08_1109,StressSession,3.1.3,59.998336046800524,
,,,,orange,white,white,orange,left,,,,,0,45,45,172,,,,,,,,,left,0.702592980226882,703.3792497581867,None,,,,,es,002,2019_Oct_08_1109,StressSession,3.1.3,59.998336046800524,
,,,,green,white,green,white,right,,,,,0,46,46,26,,,,,,,,,right,0.8657656039399626,704.6159203772072,None,,,,,es,002,2019_Oct_08_1109,StressSession,3.1.3,59.998336046800524,
,,,,magenta,green,green,magenta,left,,,,,0,47,47,149,,,,,,,,,left,0.7161767610980405,706.0134946075757,None,,,,,es,002,2019_Oct_08_1109,StressSession,3.1.3,59.998336046800524,
,,,,orange,purple,purple,orange,left,,,,,0,48,48,170,,,,,,,,,left,0.7181351602623636,707.2673526325962,None,,,,,es,002,2019_Oct_08_1109,StressSession,3.1.3,59.998336046800524,
,,,,white,brown,white,brown,right,,,,,0,49,49,99,,,,,,,,,right,0.8469031053211893,708.530665586916,None,,,,,es,002,2019_Oct_08_1109,StressSession,3.1.3,59.998336046800524,
,,,,white,red,red,white,left,,,,,0,50,50,201,,,,,,,,,left,0.8507170770274115,709.9026876148532,None,,,,,es,002,2019_Oct_08_1109,StressSession,3.1.3,59.998336046800524,
,,,,purple,yellow,purple,yellow,right,,,,,0,51,51,78,,,,,,,,,right,0.7372378721117911,711.2964884068315,None,,,,,es,002,2019_Oct_08_1109,StressSession,3.1.3,59.998336046800524,
,,,,orange,magenta,orange,magenta,right,,,,,0,52,52,67,,,,,,,,,right,0.7324562208186762,712.5811120720589,None,,,,,es,002,2019_Oct_08_1109,StressSession,3.1.3,59.998336046800524,
,,,,white,cyan,cyan,white,left,,,,,0,53,53,205,,,,,,,,,left,0.7282023559669142,713.8416047609153,None,,,,,es,002,2019_Oct_08_1109,StressSession,3.1.3,59.998336046800524,
,,,,green,cyan,green,cyan,right,,,,,0,54,54,21,,,,,,,,,right,0.6308374908426231,715.1066085945135,None,,,,,es,002,2019_Oct_08_1109,StressSession,3.1.3,59.998336046800524,
,,,,blue,brown,blue,brown,right,,,,,0,55,55,16,,,,,,,,,right,0.8620949921728425,716.2753108158674,None,,,,,es,002,2019_Oct_08_1109,StressSession,3.1.3,59.998336046800524,
,,,,purple,green,purple,green,right,,,,,0,56,56,75,,,,,,,,,right,0.9438984772700678,717.6735476592862,None,,,,,es,002,2019_Oct_08_1109,StressSession,3.1.3,59.998336046800524,
,,,,white,yellow,white,yellow,right,,,,,0,57,57,96,,,,,,,,,right,0.6870806668455316,719.1543517208099,None,,,,,es,002,2019_Oct_08_1109,StressSession,3.1.3,59.998336046800524,
,,,,brown,white,white,brown,left,,,,,0,58,58,190,,,,,,,,,left,0.8774989322671445,720.3640723779959,None,,,,,es,002,2019_Oct_08_1109,StressSession,3.1.3,59.998336046800524,
,,,,brown,blue,blue,brown,left,,,,,0,59,59,193,,,,,,,,,left,1.2360890726019989,721.7732502300798,None,,,,,es,002,2019_Oct_08_1109,StressSession,3.1.3,59.998336046800524,
,,,,purple,red,purple,red,right,,,,,0,60,60,73,,,,,,,,,right,0.6585755056744347,723.5509074982795,None,,,,,es,002,2019_Oct_08_1109,StressSession,3.1.3,59.998336046800524,
,,,,orange,yellow,yellow,orange,left,,,,,0,61,61,179,,,,,,,,,left,0.8644911511505597,724.7533317319119,None,,,,,es,002,2019_Oct_08_1109,StressSession,3.1.3,59.998336046800524,
,,,,cyan,white,cyan,white,right,,,,,0,62,62,44,,,,,,,,,right,0.7095011372794033,726.1478062302692,None,,,,,es,002,2019_Oct_08_1109,StressSession,3.1.3,59.998336046800524,
,,,,magenta,white,magenta,white,right,,,,,0,63,63,35,,,,,,,,,right,0.8050543765102702,727.3963671908832,None,,,,,es,002,2019_Oct_08_1109,StressSession,3.1.3,59.998336046800524,
,,,,brown,yellow,yellow,brown,left,,,,,0,64,64,197,,,,,,,,,left,1.421751713385902,728.7316101411798,None,,,,,es,002,2019_Oct_08_1109,StressSession,3.1.3,59.998336046800524,
,,,,purple,orange,purple,orange,right,,,,,0,65,65,79,,,,,,,,,right,0.9760200635648744,730.697864235578,None,,,,,es,002,2019_Oct_08_1109,StressSession,3.1.3,59.998336046800524,
,,,,cyan,purple,purple,cyan,left,,,,,0,66,66,152,,,,,,,,,left,0.7366878990130772,732.2010490875523,None,,,,,es,002,2019_Oct_08_1109,StressSession,3.1.3,59.998336046800524,
,,,,blue,magenta,magenta,blue,left,,,,,0,67,67,121,,,,,,,,,left,0.9246549654806131,733.476808329895,None,,,,,es,002,2019_Oct_08_1109,StressSession,3.1.3,59.998336046800524,
,,,,orange,cyan,orange,cyan,right,,,,,0,68,68,68,,,,,,,,,right,0.8423983605766807,734.9434483441287,None,,,,,es,002,2019_Oct_08_1109,StressSession,3.1.3,59.998336046800524,
,,,,cyan,black,cyan,black,right,,,,,0,69,69,45,,,,,,,,,right,0.574298208299524,736.3230573554956,None,,,,,es,002,2019_Oct_08_1109,StressSession,3.1.3,59.998336046800524,
,,,,black,cyan,black,cyan,right,,,,,0,70,70,104,,,,,,,,,right,1.017352952596184,737.4405173587127,None,,,,,es,002,2019_Oct_08_1109,StressSession,3.1.3,59.998336046800524,
,,,,brown,cyan,brown,cyan,right,,,,,0,71,71,86,,,,,,,,,right,0.5758448743060853,738.985517232846,None,,,,,es,002,2019_Oct_08_1109,StressSession,3.1.3,59.998336046800524,
,,,,yellow,magenta,magenta,yellow,left,,,,,0,72,72,168,,,,,,,,,left,0.7022341537133343,740.10717947427,None,,,,,es,002,2019_Oct_08_1109,StressSession,3.1.3,59.998336046800524,
,,,,green,purple,green,purple,right,,,,,0,73,73,24,,,,,,,,,right,0.6404123134241217,741.3529517427405,None,,,,,es,002,2019_Oct_08_1109,StressSession,3.1.3,59.998336046800524,
,,,,green,orange,green,orange,right,,,,,0,74,74,23,,,,,,,,,right,1.133235996485837,742.5244439362373,None,,,,,es,002,2019_Oct_08_1109,StressSession,3.1.3,59.998336046800524,
,,,,green,red,green,red,right,,,,,0,75,75,28,,,,,,,,,right,0.774214496335162,744.1876816265892,None,,,,,es,002,2019_Oct_08_1109,StressSession,3.1.3,59.998336046800524,
,,,,cyan,orange,cyan,orange,right,,,,,0,76,76,41,,,,,,,,,right,0.8707256018237786,745.4987394138711,None,,,,,es,002,2019_Oct_08_1109,StressSession,3.1.3,59.998336046800524,
,,,,magenta,orange,magenta,orange,right,,,,,0,77,77,32,,,,,,,,,right,0.6244037869212207,746.8969404173054,None,,,,,es,002,2019_Oct_08_1109,StressSession,3.1.3,59.998336046800524,
,,,,red,magenta,red,magenta,right,,,,,0,78,78,2,,,,,,,,,right,0.7642164206008601,748.0616328270366,None,,,,,es,002,2019_Oct_08_1109,StressSession,3.1.3,59.998336046800524,
,,,,green,cyan,cyan,green,left,,,,,0,79,79,131,,,,,,,,,left,0.7037095664170465,749.361779045641,None,,,,,es,002,2019_Oct_08_1109,StressSession,3.1.3,59.998336046800524,
,,,,brown,yellow,brown,yellow,right,,,,,0,80,80,87,,,,,,,,,right,1.0378410505211377,750.595662679184,None,,,,,es,002,2019_Oct_08_1109,StressSession,3.1.3,59.998336046800524,
,,,,orange,green,orange,green,right,,,,,0,81,81,66,,,,,,,,,right,1.4217704867112388,752.1797464833082,None,,,,,es,002,2019_Oct_08_1109,StressSession,3.1.3,59.998336046800524,
,,,,blue,green,green,blue,left,,,,,0,82,82,120,,,,,,,,,right,0.4370592268546716,754.1407487399472,None,,,,,es,002,2019_Oct_08_1109,StressSession,3.1.3,59.998336046800524,
,,,,red,magenta,magenta,red,left,,,,,0,83,83,112,,,,,,,,,left,1.0639120793973689,755.105930194803,None,,,,,es,002,2019_Oct_08_1109,StressSession,3.1.3,59.998336046800524,
,,,,green,magenta,green,magenta,right,,,,,0,84,84,20,,,,,,,,,right,0.8528597961130799,756.70880439091,None,,,,,es,002,2019_Oct_08_1109,StressSession,3.1.3,59.998336046800524,
,,,,green,yellow,yellow,green,left,,,,,0,85,85,132,,,,,,,,,left,0.6692861144379094,758.1000882772958,None,,,,,es,002,2019_Oct_08_1109,StressSession,3.1.3,59.998336046800524,
,,,,cyan,green,cyan,green,right,,,,,0,86,86,48,,,,,,,,,right,0.8499153707027745,759.2954477672756,None,,,,,es,002,2019_Oct_08_1109,StressSession,3.1.3,59.998336046800524,
,,,,white,blue,white,blue,right,,,,,0,87,87,92,,,,,,,,,right,0.8349116437711928,760.6870478135263,None,,,,,es,002,2019_Oct_08_1109,StressSession,3.1.3,59.998336046800524,
,,,,magenta,black,magenta,black,right,,,,,0,88,88,36,,,,,,,,,right,0.6781799773098101,762.0595903745748,None,,,,,es,002,2019_Oct_08_1109,StressSession,3.1.3,59.998336046800524,
,,,,blue,white,white,blue,left,,,,,0,89,89,127,,,,,,,,,left,0.646824257354865,763.2665189262852,None,,,,,es,002,2019_Oct_08_1109,StressSession,3.1.3,59.998336046800524,
,,,,red,blue,red,blue,right,,,,,0,90,90,0,,,,,,,,,right,0.7927868617441618,764.4405118120483,None,,,,,es,002,2019_Oct_08_1109,StressSession,3.1.3,59.998336046800524,
,,,,magenta,green,magenta,green,right,,,,,0,91,91,39,,,,,,,,,right,0.9666799075498602,765.7709193510743,None,,,,,es,002,2019_Oct_08_1109,StressSession,3.1.3,59.998336046800524,
,,,,black,green,green,black,left,,,,,0,92,92,212,,,,,,,,,left,0.7524937589359979,767.2815367332109,None,,,,,es,002,2019_Oct_08_1109,StressSession,3.1.3,59.998336046800524,
,,,,black,blue,blue,black,left,,,,,0,93,93,211,,,,,,,,,left,1.3623900320469602,768.5514655780414,None,,,,,es,002,2019_Oct_08_1109,StressSession,3.1.3,59.998336046800524,
,,,,purple,black,black,purple,left,,,,,0,94,94,182,,,,,,,,,left,0.9621875361333423,770.4473333558044,None,,,,,es,002,2019_Oct_08_1109,StressSession,3.1.3,59.998336046800524,
,,,,black,white,white,black,left,,,,,0,95,95,219,,,,,,,,,left,2.745126082079423,771.944716396921,None,,,,,es,002,2019_Oct_08_1109,StressSession,3.1.3,59.998336046800524,
,,,,yellow,black,black,yellow,left,,,,,0,96,96,164,,,,,,,,,left,1.446604609448741,775.2267062499386,None,,,,,es,002,2019_Oct_08_1109,StressSession,3.1.3,59.998336046800524,
,,,,brown,orange,orange,brown,left,,,,,0,97,97,198,,,,,,,,,left,1.2805524136308577,777.2092641240472,None,,,,,es,002,2019_Oct_08_1109,StressSession,3.1.3,59.998336046800524,
,,,,blue,green,blue,green,right,,,,,0,98,98,10,,,,,,,,,right,1.2054057790269326,779.0201015380901,None,,,,,es,002,2019_Oct_08_1109,StressSession,3.1.3,59.998336046800524,
,,,,red,brown,brown,red,left,,,,,0,99,99,117,,,,,,,,,right,1.0831116445388034,780.7504427731444,None,,,,,es,002,2019_Oct_08_1109,StressSession,3.1.3,59.998336046800524,
,,,,cyan,brown,brown,cyan,left,,,,,0,100,100,153,,,,,,,,,left,0.8013564580878665,782.3600796330327,None,,,,,es,002,2019_Oct_08_1109,StressSession,3.1.3,59.998336046800524,
,,,,blue,black,blue,black,right,,,,,0,101,101,18,,,,,,,,,right,1.2699557248188285,783.6999382613596,None,,,,,es,002,2019_Oct_08_1109,StressSession,3.1.3,59.998336046800524,
,,,,green,blue,blue,green,left,,,,,0,102,102,139,,,,,,,,,left,0.8449634794819758,785.492337709936,None,,,,,es,002,2019_Oct_08_1109,StressSession,3.1.3,59.998336046800524,
,,,,purple,white,purple,white,right,,,,,0,103,103,71,,,,,,,,,right,0.6541095875800238,786.8675439498477,None,,,,,es,002,2019_Oct_08_1109,StressSession,3.1.3,59.998336046800524,
,,,,blue,orange,blue,orange,right,,,,,0,104,104,14,,,,,,,,,right,0.8743522669428785,788.0630113864484,None,,,,,es,002,2019_Oct_08_1109,StressSession,3.1.3,59.998336046800524,
,,,,black,green,black,green,right,,,,,0,105,105,102,,,,,,,,,right,1.2150552682433045,789.4828290206594,None,,,,,es,002,2019_Oct_08_1109,StressSession,3.1.3,59.998336046800524,
,,,,magenta,orange,orange,magenta,left,,,,,0,106,106,142,,,,,,,,,left,0.7681344989291574,791.2334829937138,None,,,,,es,002,2019_Oct_08_1109,StressSession,3.1.3,59.998336046800524,
,,,,brown,cyan,cyan,brown,left,,,,,0,107,107,196,,,,,,,,,left,1.2967491000536029,792.544539927663,None,,,,,es,002,2019_Oct_08_1109,StressSession,3.1.3,59.998336046800524,
,,,,white,yellow,yellow,white,left,,,,,0,108,108,206,,,,,,,,,left,1.1936075973940206,794.3762319461409,None,,,,,es,002,2019_Oct_08_1109,StressSession,3.1.3,59.998336046800524,
,,,,brown,purple,purple,brown,left,,,,,0,109,109,199,,,,,,,,,left,0.9484446086635216,796.1094134999837,None,,,,,es,002,2019_Oct_08_1109,StressSession,3.1.3,59.998336046800524,
,,,,yellow,cyan,cyan,yellow,left,,,,,0,110,110,169,,,,,,,,,left,0.7707111378299487,797.5906374013282,None,,,,,es,002,2019_Oct_08_1109,StressSession,3.1.3,59.998336046800524,
,,,,cyan,magenta,cyan,magenta,right,,,,,0,111,111,49,,,,,,,,,right,0.8048960832443299,798.9010927355337,None,,,,,es,002,2019_Oct_08_1109,StressSession,3.1.3,59.998336046800524,
,,,,magenta,blue,blue,magenta,left,,,,,0,112,112,148,,,,,,,,,left,0.6804054696935964,800.2331860338406,None,,,,,es,002,2019_Oct_08_1109,StressSession,3.1.3,59.998336046800524,
,,,,yellow,white,yellow,white,right,,,,,0,113,113,53,,,,,,,,,right,0.8900945535592655,801.4553785790383,None,,,,,es,002,2019_Oct_08_1109,StressSession,3.1.3,59.998336046800524,
,,,,black,red,red,black,left,,,,,0,114,114,210,,,,,,,,,left,0.7884574769245773,802.8849865024056,None,,,,,es,002,2019_Oct_08_1109,StressSession,3.1.3,59.998336046800524,
,,,,white,black,white,black,right,,,,,0,115,115,90,,,,,,,,,right,0.6454990312540758,804.2118518562763,None,,,,,es,002,2019_Oct_08_1109,StressSession,3.1.3,59.998336046800524,
,,,,orange,cyan,cyan,orange,left,,,,,0,116,116,178,,,,,,,,,left,0.751270932791158,805.4020802551124,None,,,,,es,002,2019_Oct_08_1109,StressSession,3.1.3,59.998336046800524,
,,,,red,cyan,red,cyan,right,,,,,0,117,117,3,,,,,,,,,right,1.0846412438863808,806.6772310710483,None,,,,,es,002,2019_Oct_08_1109,StressSession,3.1.3,59.998336046800524,
,,,,orange,brown,orange,brown,right,,,,,0,118,118,61,,,,,,,,,right,0.8369387362395173,808.30037491184,None,,,,,es,002,2019_Oct_08_1109,StressSession,3.1.3,59.998336046800524,
,,,,red,green,red,green,right,,,,,0,119,119,1,,,,,,,,,left,0.4696424662856771,809.6760816315384,None,,,,,es,002,2019_Oct_08_1109,StressSession,3.1.3,59.998336046800524,
,,,,brown,green,brown,green,right,,,,,0,120,120,84,,,,,,,,,right,0.6362006885542542,810.6777302708349,None,,,,,es,002,2019_Oct_08_1109,StressSession,3.1.3,59.998336046800524,
,,,,black,blue,black,blue,right,,,,,0,121,121,101,,,,,,,,,right,0.7248773440524019,811.8444233197126,None,,,,,es,002,2019_Oct_08_1109,StressSession,3.1.3,59.998336046800524,
,,,,magenta,yellow,magenta,yellow,right,,,,,0,122,122,31,,,,,,,,,right,0.7804899069910789,813.1168251234878,None,,,,,es,002,2019_Oct_08_1109,StressSession,3.1.3,59.998336046800524,
,,,,red,yellow,yellow,red,left,,,,,0,123,123,114,,,,,,,,,left,0.6023519563295849,814.4229852061928,None,,,,,es,002,2019_Oct_08_1109,StressSession,3.1.3,59.998336046800524,
,,,,red,blue,blue,red,left,,,,,0,124,124,110,,,,,,,,,left,0.7753605225129832,815.5461075003275,None,,,,,es,002,2019_Oct_08_1109,StressSession,3.1.3,59.998336046800524,
,,,,red,white,white,red,left,,,,,0,125,125,118,,,,,,,,,left,0.8117701069777468,816.8460412390225,None,,,,,es,002,2019_Oct_08_1109,StressSession,3.1.3,59.998336046800524,
,,,,green,red,red,green,left,,,,,0,126,126,138,,,,,,,,,left,0.7335053937044904,818.187910319825,None,,,,,es,002,2019_Oct_08_1109,StressSession,3.1.3,59.998336046800524,
,,,,brown,white,brown,white,right,,,,,0,127,127,80,,,,,,,,,right,0.7287971290465975,819.4570028983455,None,,,,,es,002,2019_Oct_08_1109,StressSession,3.1.3,59.998336046800524,
,,,,purple,cyan,cyan,purple,left,,,,,0,128,128,187,,,,,,,,,left,0.9270549644566017,820.7228370249229,None,,,,,es,002,2019_Oct_08_1109,StressSession,3.1.3,59.998336046800524,
,,,,purple,blue,purple,blue,right,,,,,0,129,129,74,,,,,,,,,right,0.821312929573196,822.1801402964736,None,,,,,es,002,2019_Oct_08_1109,StressSession,3.1.3,59.998336046800524,
,,,,cyan,red,red,cyan,left,,,,,0,130,130,156,,,,,,,,,left,1.3728600009130787,823.5326073460876,None,,,,,es,002,2019_Oct_08_1109,StressSession,3.1.3,59.998336046800524,
,,,,blue,orange,orange,blue,left,,,,,0,131,131,124,,,,,,,,,left,0.8235554886164209,825.4337162949475,None,,,,,es,002,2019_Oct_08_1109,StressSession,3.1.3,59.998336046800524,
,,,,magenta,cyan,magenta,cyan,right,,,,,0,132,132,30,,,,,,,,,right,1.0382954503270412,826.8031996573015,None,,,,,es,002,2019_Oct_08_1109,StressSession,3.1.3,59.998336046800524,
,,,,magenta,yellow,yellow,magenta,left,,,,,0,133,133,141,,,,,,,,,left,0.7207591591427445,828.3766010126503,None,,,,,es,002,2019_Oct_08_1109,StressSession,3.1.3,59.998336046800524,
,,,,green,black,black,green,left,,,,,0,134,134,137,,,,,,,,,left,0.7231531847878614,829.6302017577807,None,,,,,es,002,2019_Oct_08_1109,StressSession,3.1.3,59.998336046800524,
,,,,yellow,blue,yellow,blue,right,,,,,0,135,135,56,,,,,,,,,right,0.6727630196210157,830.8965222841505,None,,,,,es,002,2019_Oct_08_1109,StressSession,3.1.3,59.998336046800524,
,,,,black,brown,brown,black,left,,,,,0,136,136,218,,,,,,,,,left,0.961994256215803,832.1115374457438,None,,,,,es,002,2019_Oct_08_1109,StressSession,3.1.3,59.998336046800524,
,,,,cyan,green,green,cyan,left,,,,,0,137,137,158,,,,,,,,,left,0.8774972256010187,833.611916112249,None,,,,,es,002,2019_Oct_08_1109,StressSession,3.1.3,59.998336046800524,
,,,,black,magenta,black,magenta,right,,,,,0,138,138,103,,,,,,,,,right,0.9555993789444983,835.070207543378,None,,,,,es,002,2019_Oct_08_1109,StressSession,3.1.3,59.998336046800524,
,,,,black,purple,black,purple,right,,,,,0,139,139,107,,,,,,,,,right,0.8382016690338787,836.547323073142,None,,,,,es,002,2019_Oct_08_1109,StressSession,3.1.3,59.998336046800524,
,,,,purple,white,white,purple,left,,,,,0,140,140,181,,,,,,,,,left,0.6421612193444162,837.919466274361,None,,,,,es,002,2019_Oct_08_1109,StressSession,3.1.3,59.998336046800524,
,,,,cyan,orange,orange,cyan,left,,,,,0,141,141,151,,,,,,,,,left,1.4714997454934746,839.1059984614405,None,,,,,es,002,2019_Oct_08_1109,StressSession,3.1.3,59.998336046800524,
,,,,blue,cyan,blue,cyan,right,,,,,0,142,142,12,,,,,,,,,right,0.6819815756880416,841.1116129657119,None,,,,,es,002,2019_Oct_08_1109,StressSession,3.1.3,59.998336046800524,
,,,,white,cyan,white,cyan,right,,,,,0,143,143,95,,,,,,,,,right,0.4780149427137985,842.3314468985825,None,,,,,es,002,2019_Oct_08_1109,StressSession,3.1.3,59.998336046800524,
,,,,orange,magenta,magenta,orange,left,,,,,0,144,144,177,,,,,,,,,left,0.7724284704308957,843.3572444342424,None,,,,,es,002,2019_Oct_08_1109,StressSession,3.1.3,59.998336046800524,
,,,,green,brown,brown,green,left,,,,,0,145,145,135,,,,,,,,,left,0.9027422281633335,844.6671788086703,None,,,,,es,002,2019_Oct_08_1109,StressSession,3.1.3,59.998336046800524,
,,,,brown,black,black,brown,left,,,,,0,146,146,191,,,,,,,,,left,1.084078470793429,846.101292756782,None,,,,,es,002,2019_Oct_08_1109,StressSession,3.1.3,59.998336046800524,
,,,,black,cyan,cyan,black,left,,,,,0,147,147,214,,,,,,,,,right,0.765548473365925,847.715733027954,None,,,,,es,002,2019_Oct_08_1109,StressSession,3.1.3,59.998336046800524,
,,,,green,white,white,green,left,,,,,0,148,148,136,,,,,,,,,left,0.7723559371279407,849.013206181032,None,,,,,es,002,2019_Oct_08_1109,StressSession,3.1.3,59.998336046800524,
,,,,red,cyan,cyan,red,left,,,,,0,149,149,113,,,,,,,,,left,0.9168776887986496,850.3249513280209,None,,,,,es,002,2019_Oct_08_1109,StressSession,3.1.3,59.998336046800524,
,,,,magenta,purple,magenta,purple,right,,,,,0,150,150,33,,,,,,,,,right,1.320923596405919,851.7847134785222,None,,,,,es,002,2019_Oct_08_1109,StressSession,3.1.3,59.998336046800524,
,,,,black,orange,orange,black,left,,,,,0,151,151,216,,,,,,,,,left,1.1559039334811132,853.6453484179845,None,,,,,es,002,2019_Oct_08_1109,StressSession,3.1.3,59.998336046800524,
,,,,cyan,blue,cyan,blue,right,,,,,0,152,152,47,,,,,,,,,right,1.4021540684143474,855.3431844935747,None,,,,,es,002,2019_Oct_08_1109,StressSession,3.1.3,59.998336046800524,
,,,,blue,black,black,blue,left,,,,,0,153,153,128,,,,,,,,,left,0.7597005825277847,857.26616393977,None,,,,,es,002,2019_Oct_08_1109,StressSession,3.1.3,59.998336046800524,
,,,,magenta,brown,brown,magenta,left,,,,,0,154,154,144,,,,,,,,,left,1.3355356435049544,858.5617815203066,None,,,,,es,002,2019_Oct_08_1109,StressSession,3.1.3,59.998336046800524,
,,,,orange,red,red,orange,left,,,,,0,155,155,174,,,,,,,,,left,1.3131919730381014,860.4401781588574,None,,,,,es,002,2019_Oct_08_1109,StressSession,3.1.3,59.998336046800524,
,,,,red,brown,red,brown,right,,,,,0,156,156,7,,,,,,,,,right,0.8045325633997891,862.2773174283445,None,,,,,es,002,2019_Oct_08_1109,StressSession,3.1.3,59.998336046800524,
,,,,brown,magenta,magenta,brown,left,,,,,0,157,157,195,,,,,,,,,left,1.1850217877240539,863.61620283042,None,,,,,es,002,2019_Oct_08_1109,StressSession,3.1.3,59.998336046800524,
,,,,white,magenta,magenta,white,left,,,,,0,158,158,204,,,,,,,,,left,0.8165927182535597,865.3292627928479,None,,,,,es,002,2019_Oct_08_1109,StressSession,3.1.3,59.998336046800524,
,,,,purple,blue,blue,purple,left,,,,,0,159,159,184,,,,,,,,,right,0.7338207002362651,866.6839728281714,None,,,,,es,002,2019_Oct_08_1109,StressSession,3.1.3,59.998336046800524,
,,,,brown,green,green,brown,left,,,,,0,160,160,194,,,,,,,,,left,1.034762225167924,867.9505331411058,None,,,,,es,002,2019_Oct_08_1109,StressSession,3.1.3,59.998336046800524,
,,,,purple,red,red,purple,left,,,,,0,161,161,183,,,,,,,,,left,1.4623200160767738,869.5152910868089,None,,,,,es,002,2019_Oct_08_1109,StressSession,3.1.3,59.998336046800524,
,,,,blue,brown,brown,blue,left,,,,,0,162,162,126,,,,,,,,,left,0.6752103785770487,871.5101139156848,None,,,,,es,002,2019_Oct_08_1109,StressSession,3.1.3,59.998336046800524,
,,,,brown,blue,brown,blue,right,,,,,0,163,163,83,,,,,,,,,right,0.7794633474291004,872.7181564935865,None,,,,,es,002,2019_Oct_08_1109,StressSession,3.1.3,59.998336046800524,
,,,,yellow,orange,orange,yellow,left,,,,,0,164,164,160,,,,,,,,,left,1.0674226912328777,874.0300556671762,None,,,,,es,002,2019_Oct_08_1109,StressSession,3.1.3,59.998336046800524,
,,,,red,white,red,white,right,,,,,0,165,165,8,,,,,,,,,right,0.7002838612124833,875.6215976014516,None,,,,,es,002,2019_Oct_08_1109,StressSession,3.1.3,59.998336046800524,
,,,,yellow,white,white,yellow,left,,,,,0,166,166,163,,,,,,,,,left,0.9341401881006277,876.8598246998083,None,,,,,es,002,2019_Oct_08_1109,StressSession,3.1.3,59.998336046800524,
,,,,purple,brown,brown,purple,left,,,,,0,167,167,180,,,,,,,,,left,1.1202201087057801,878.3290264196155,None,,,,,es,002,2019_Oct_08_1109,StressSession,3.1.3,59.998336046800524,
,,,,purple,magenta,magenta,purple,left,,,,,0,168,168,186,,,,,,,,,left,0.7906023293430735,879.9788915290062,None,,,,,es,002,2019_Oct_08_1109,StressSession,3.1.3,59.998336046800524,
,,,,orange,black,orange,black,right,,,,,0,169,169,63,,,,,,,,,right,0.6865422137420865,881.3069575223647,None,,,,,es,002,2019_Oct_08_1109,StressSession,3.1.3,59.998336046800524,
,,,,blue,yellow,blue,yellow,right,,,,,0,170,170,13,,,,,,,,,right,0.8417668941792726,882.5355078248501,None,,,,,es,002,2019_Oct_08_1109,StressSession,3.1.3,59.998336046800524,
,,,,white,blue,blue,white,left,,,,,0,171,171,202,,,,,,,,,left,0.5684494641282072,883.9133291036462,None,,,,,es,002,2019_Oct_08_1109,StressSession,3.1.3,59.998336046800524,
,,,,green,black,green,black,right,,,,,0,172,172,27,,,,,,,,,right,0.5748993813763263,885.0185599920812,None,,,,,es,002,2019_Oct_08_1109,StressSession,3.1.3,59.998336046800524,
,,,,blue,cyan,cyan,blue,left,,,,,0,173,173,122,,,,,,,,,left,0.5987376645384757,886.1310476240862,None,,,,,es,002,2019_Oct_08_1109,StressSession,3.1.3,59.998336046800524,
,,,,cyan,purple,cyan,purple,right,,,,,0,174,174,42,,,,,,,,,right,0.6923209846095233,887.2611719418999,None,,,,,es,002,2019_Oct_08_1109,StressSession,3.1.3,59.998336046800524,
,,,,white,black,black,white,left,,,,,0,175,175,200,,,,,,,,,left,0.49503850878363664,888.4824241141657,None,,,,,es,002,2019_Oct_08_1109,StressSession,3.1.3,59.998336046800524,
,,,,brown,red,red,brown,left,,,,,0,176,176,192,,,,,,,,,left,2.329133086236652,889.5126619679311,None,,,,,es,002,2019_Oct_08_1109,StressSession,3.1.3,59.998336046800524,
,,,,magenta,blue,magenta,blue,right,,,,,0,177,177,38,,,,,,,,,right,0.8981926834376281,892.3831319965304,None,,,,,es,002,2019_Oct_08_1109,StressSession,3.1.3,59.998336046800524,
,,,,magenta,red,magenta,red,right,,,,,0,178,178,37,,,,,,,,,right,0.8838242629017259,893.7976482996698,None,,,,,es,002,2019_Oct_08_1109,StressSession,3.1.3,59.998336046800524,
,,,,blue,purple,purple,blue,left,,,,,0,179,179,125,,,,,,,,,left,0.7045594860542224,895.2089142575298,None,,,,,es,002,2019_Oct_08_1109,StressSession,3.1.3,59.998336046800524,
,,,,orange,red,orange,red,right,,,,,0,180,180,64,,,,,,,,,right,0.6465925774541574,896.4432015175673,None,,,,,es,002,2019_Oct_08_1109,StressSession,3.1.3,59.998336046800524,
,,,,magenta,white,white,magenta,left,,,,,0,181,181,145,,,,,,,,,left,0.6119067255863229,897.6299308245627,None,,,,,es,002,2019_Oct_08_1109,StressSession,3.1.3,59.998336046800524,
,,,,red,yellow,red,yellow,right,,,,,0,182,182,4,,,,,,,,,right,0.799220565666019,898.7706117245391,None,,,,,es,002,2019_Oct_08_1109,StressSession,3.1.3,59.998336046800524,
,,,,red,orange,orange,red,left,,,,,0,183,183,115,,,,,,,,,left,1.0969074786530655,900.0963400122284,None,,,,,es,002,2019_Oct_08_1109,StressSession,3.1.3,59.998336046800524,
,,,,green,magenta,magenta,green,left,,,,,0,184,184,130,,,,,,,,,left,1.130595357612492,901.7429065630265,None,,,,,es,002,2019_Oct_08_1109,StressSession,3.1.3,59.998336046800524,
,,,,black,purple,purple,black,left,,,,,0,185,185,217,,,,,,,,,left,1.0053043177367726,903.4039383876527,None,,,,,es,002,2019_Oct_08_1109,StressSession,3.1.3,59.998336046800524,
,,,,yellow,red,yellow,red,right,,,,,0,186,186,55,,,,,,,,,right,0.6897601323689742,904.9517657805798,None,,,,,es,002,2019_Oct_08_1109,StressSession,3.1.3,59.998336046800524,
,,,,white,green,white,green,right,,,,,0,187,187,93,,,,,,,,,right,1.1053260350604432,906.1842567747169,None,,,,,es,002,2019_Oct_08_1109,StressSession,3.1.3,59.998336046800524,
,,,,green,orange,orange,green,left,,,,,0,188,188,133,,,,,,,,,left,0.8693423490808527,907.8281246600002,None,,,,,es,002,2019_Oct_08_1109,StressSession,3.1.3,59.998336046800524,
,,,,white,orange,orange,white,left,,,,,0,189,189,207,,,,,,,,,left,1.1751269652791052,909.2261114768592,None,,,,,es,002,2019_Oct_08_1109,StressSession,3.1.3,59.998336046800524,
,,,,orange,purple,orange,purple,right,,,,,0,190,190,60,,,,,,,,,right,1.3382488156807995,910.9273660043239,None,,,,,es,002,2019_Oct_08_1109,StressSession,3.1.3,59.998336046800524,
,,,,brown,black,brown,black,right,,,,,0,191,191,81,,,,,,,,,right,1.1238297071658963,912.7976922463179,None,,,,,es,002,2019_Oct_08_1109,StressSession,3.1.3,59.998336046800524,
,,,,cyan,yellow,yellow,cyan,left,,,,,0,192,192,150,,,,,,,,,left,0.8211879162931837,914.460297190273,None,,,,,es,002,2019_Oct_08_1109,StressSession,3.1.3,59.998336046800524,
,,,,green,purple,purple,green,left,,,,,0,193,193,134,,,,,,,,,right,1.168283234865612,915.8094080813191,None,,,,,es,002,2019_Oct_08_1109,StressSession,3.1.3,59.998336046800524,
,,,,orange,yellow,orange,yellow,right,,,,,0,194,194,69,,,,,,,,,right,1.0582101084969509,917.5115667150646,None,,,,,es,002,2019_Oct_08_1109,StressSession,3.1.3,59.998336046800524,
,,,,white,red,white,red,right,,,,,0,195,195,91,,,,,,,,,right,0.6555943869466319,919.1058516881701,None,,,,,es,002,2019_Oct_08_1109,StressSession,3.1.3,59.998336046800524,
,,,,yellow,cyan,yellow,cyan,right,,,,,0,196,196,59,,,,,,,,,right,0.614402297855122,920.306863655738,None,,,,,es,002,2019_Oct_08_1109,StressSession,3.1.3,59.998336046800524,
,,,,cyan,black,black,cyan,left,,,,,0,197,197,155,,,,,,,,,left,0.6678418483875248,921.4455375165705,None,,,,,es,002,2019_Oct_08_1109,StressSession,3.1.3,59.998336046800524,
,,,,white,orange,white,orange,right,,,,,0,198,198,97,,,,,,,,,right,1.2987309658747108,922.6550017471993,None,,,,,es,002,2019_Oct_08_1109,StressSession,3.1.3,59.998336046800524,
,,,,cyan,magenta,magenta,cyan,left,,,,,0,199,199,159,,,,,,,,,left,0.7478631475787552,924.4857550994113,None,,,,,es,002,2019_Oct_08_1109,StressSession,3.1.3,59.998336046800524,
,,,,blue,yellow,yellow,blue,left,,,,,0,200,200,123,,,,,,,,,left,0.8237150618815576,925.769644044952,None,,,,,es,002,2019_Oct_08_1109,StressSession,3.1.3,59.998336046800524,
,,,,black,brown,black,brown,right,,,,,0,201,201,108,,,,,,,,,right,1.131699997141368,927.133568796344,None,,,,,es,002,2019_Oct_08_1109,StressSession,3.1.3,59.998336046800524,
,,,,white,purple,white,purple,right,,,,,0,202,202,98,,,,,,,,,right,1.3763433060935313,928.8011094181932,None,,,,,es,002,2019_Oct_08_1109,StressSession,3.1.3,59.998336046800524,
,,,,yellow,purple,purple,yellow,left,,,,,0,203,203,161,,,,,,,,,left,1.1261605861714088,930.7156348946626,None,,,,,es,002,2019_Oct_08_1109,StressSession,3.1.3,59.998336046800524,
,,,,black,yellow,yellow,black,left,,,,,0,204,204,215,,,,,,,,,left,0.6852506942927903,932.3802835710792,None,,,,,es,002,2019_Oct_08_1109,StressSession,3.1.3,59.998336046800524,
,,,,blue,red,blue,red,right,,,,,0,205,205,19,,,,,,,,,left,0.7929319283493896,933.5923308406057,None,,,,,es,002,2019_Oct_08_1109,StressSession,3.1.3,59.998336046800524,
,,,,yellow,brown,yellow,brown,right,,,,,0,206,206,52,,,,,,,,,right,1.0500859519634105,934.9276578441993,None,,,,,es,002,2019_Oct_08_1109,StressSession,3.1.3,59.998336046800524,
,,,,black,red,black,red,right,,,,,0,207,207,100,,,,,,,,,right,0.9020373751309307,936.5076925833844,None,,,,,es,002,2019_Oct_08_1109,StressSession,3.1.3,59.998336046800524,
,,,,red,purple,purple,red,left,,,,,0,208,208,116,,,,,,,,,left,0.9738257178341883,937.9317448824556,None,,,,,es,002,2019_Oct_08_1109,StressSession,3.1.3,59.998336046800524,
,,,,magenta,brown,magenta,brown,right,,,,,0,209,209,34,,,,,,,,,right,1.6591967320759977,939.4460606096807,None,,,,,es,002,2019_Oct_08_1109,StressSession,3.1.3,59.998336046800524,
,,,,yellow,purple,yellow,purple,right,,,,,0,210,210,51,,,,,,,,,right,2.128982131634075,941.6403018068047,None,,,,,es,002,2019_Oct_08_1109,StressSession,3.1.3,59.998336046800524,
,,,,white,brown,brown,white,left,,,,,0,211,211,209,,,,,,,,,left,1.330630685597498,944.3031930439709,None,,,,,es,002,2019_Oct_08_1109,StressSession,3.1.3,59.998336046800524,
,,,,blue,magenta,blue,magenta,right,,,,,0,212,212,11,,,,,,,,,right,1.1049689152132487,946.1686032347291,None,,,,,es,002,2019_Oct_08_1109,StressSession,3.1.3,59.998336046800524,
,,,,magenta,purple,purple,magenta,left,,,,,0,213,213,143,,,,,,,,,left,1.196023383030024,947.8135992261975,None,,,,,es,002,2019_Oct_08_1109,StressSession,3.1.3,59.998336046800524,
,,,,magenta,black,black,magenta,left,,,,,0,214,214,146,,,,,,,,,left,1.5513252047680908,949.5381996637013,None,,,,,es,002,2019_Oct_08_1109,StressSession,3.1.3,59.998336046800524,
,,,,yellow,brown,brown,yellow,left,,,,,0,215,215,162,,,,,,,,,left,1.022548470379661,951.6347278358496,None,,,,,es,002,2019_Oct_08_1109,StressSession,3.1.3,59.998336046800524,
,,,,magenta,cyan,cyan,magenta,left,,,,,0,216,216,140,,,,,,,,,left,0.6411133264587079,953.2004009811624,None,,,,,es,002,2019_Oct_08_1109,StressSession,3.1.3,59.998336046800524,
,,,,brown,red,brown,red,right,,,,,0,217,217,82,,,,,,,,,right,0.9767471032546382,954.3766731192861,None,,,,,es,002,2019_Oct_08_1109,StressSession,3.1.3,59.998336046800524,
,,,,orange,blue,blue,orange,left,,,,,0,218,218,175,,,,,,,,,left,0.6973095691478193,955.8964309775226,None,,,,,es,002,2019_Oct_08_1109,StressSession,3.1.3,59.998336046800524,
,,,,purple,yellow,yellow,purple,left,,,,,0,219,219,188,,,,,,,,,left,0.7434177094751249,957.1303978110302,None,,,,,es,002,2019_Oct_08_1109,StressSession,3.1.3,59.998336046800524,
,,,,,,,,,,,,,,,,,,,,6,9.381,,,,,,,,2019-10-08_11:25:06,,,,es,002,2019_Oct_08_1109,StressSession,3.1.3,59.998336046800524,
,,,,,,,,,,,,,,,,,,,,,,6,5.474,,,,,,,,,,es,002,2019_Oct_08_1109,StressSession,3.1.3,59.998336046800524,
,,,,,,,,,,,,,,,,,,,,2,8.038,,,,,,,,,2019-10-08_11:25:48,2019-10-08_11:30:48,,es,002,2019_Oct_08_1109,StressSession,3.1.3,59.998336046800524,
,,,,,,,,,,,,,,,,,,,,,,,,,,,,,,,,2019-10-08_11:30:58,,,,,,,
