Tick,Color,Tone,TimeDur,WordItem,WordColor,AnsLeft,AnsRight,AnsCorr,tick.thisRepN,tick.thisTrialN,tick.thisN,tick.thisIndex,stroop_trials.thisRepN,stroop_trials.thisTrialN,stroop_trials.thisN,stroop_trials.thisIndex,start_session_two,start_stress_one,end_stress_one,rating_evaluation_one.response,rating_evaluation_one.rt,rating_evaluation_two.response,rating_evaluation_two.rt,start_stress_two,key_resp_part_two_meas.keys,key_resp_part_two_meas.rt,key_resp_part_two_meas.started,key_resp_part_two_meas.stopped,end_stress_two,start_cooldown_measurement,end_cooldown_measurement,end_session_two,participant,session,date,expName,psychopyVersion,frameRate,
1,green,440,1.0,,,,,,0,0,0,0,,,,,2019-10-05_14:38:23,2019-10-05_14:40:06,,,,,,,,,,,,,,,mf,002,2019_Oct_05_1438,StressSession,3.2.3,60.02988283766041,
2,green,440,1.0,,,,,,0,1,1,1,,,,,,,,,,,,,,,,,,,,,mf,002,2019_Oct_05_1438,StressSession,3.2.3,60.02988283766041,
3,green,440,1.0,,,,,,0,2,2,2,,,,,,,,,,,,,,,,,,,,,mf,002,2019_Oct_05_1438,StressSession,3.2.3,60.02988283766041,
4,green,440,1.0,,,,,,0,3,3,3,,,,,,,,,,,,,,,,,,,,,mf,002,2019_Oct_05_1438,StressSession,3.2.3,60.02988283766041,
5,green,440,1.0,,,,,,0,4,4,4,,,,,,,,,,,,,,,,,,,,,mf,002,2019_Oct_05_1438,StressSession,3.2.3,60.02988283766041,
6,green,440,1.0,,,,,,0,5,5,5,,,,,,,,,,,,,,,,,,,,,mf,002,2019_Oct_05_1438,StressSession,3.2.3,60.02988283766041,
7,green,440,1.0,,,,,,0,6,6,6,,,,,,,,,,,,,,,,,,,,,mf,002,2019_Oct_05_1438,StressSession,3.2.3,60.02988283766041,
8,green,440,1.0,,,,,,0,7,7,7,,,,,,,,,,,,,,,,,,,,,mf,002,2019_Oct_05_1438,StressSession,3.2.3,60.02988283766041,
9,green,440,1.0,,,,,,0,8,8,8,,,,,,,,,,,,,,,,,,,,,mf,002,2019_Oct_05_1438,StressSession,3.2.3,60.02988283766041,
10,green,440,1.0,,,,,,0,9,9,9,,,,,,,,,,,,,,,,,,,,,mf,002,2019_Oct_05_1438,StressSession,3.2.3,60.02988283766041,
11,green,440,1.0,,,,,,0,10,10,10,,,,,,,,,,,,,,,,,,,,,mf,002,2019_Oct_05_1438,StressSession,3.2.3,60.02988283766041,
12,green,440,1.0,,,,,,0,11,11,11,,,,,,,,,,,,,,,,,,,,,mf,002,2019_Oct_05_1438,StressSession,3.2.3,60.02988283766041,
13,green,440,1.0,,,,,,0,12,12,12,,,,,,,,,,,,,,,,,,,,,mf,002,2019_Oct_05_1438,StressSession,3.2.3,60.02988283766041,
14,green,440,1.0,,,,,,0,13,13,13,,,,,,,,,,,,,,,,,,,,,mf,002,2019_Oct_05_1438,StressSession,3.2.3,60.02988283766041,
15,green,440,1.0,,,,,,0,14,14,14,,,,,,,,,,,,,,,,,,,,,mf,002,2019_Oct_05_1438,StressSession,3.2.3,60.02988283766041,
16,green,440,1.0,,,,,,0,15,15,15,,,,,,,,,,,,,,,,,,,,,mf,002,2019_Oct_05_1438,StressSession,3.2.3,60.02988283766041,
17,green,440,1.0,,,,,,0,16,16,16,,,,,,,,,,,,,,,,,,,,,mf,002,2019_Oct_05_1438,StressSession,3.2.3,60.02988283766041,
18,green,440,1.0,,,,,,0,17,17,17,,,,,,,,,,,,,,,,,,,,,mf,002,2019_Oct_05_1438,StressSession,3.2.3,60.02988283766041,
19,green,440,1.0,,,,,,0,18,18,18,,,,,,,,,,,,,,,,,,,,,mf,002,2019_Oct_05_1438,StressSession,3.2.3,60.02988283766041,
20,green,440,1.0,,,,,,0,19,19,19,,,,,,,,,,,,,,,,,,,,,mf,002,2019_Oct_05_1438,StressSession,3.2.3,60.02988283766041,
21,green,440,1.0,,,,,,0,20,20,20,,,,,,,,,,,,,,,,,,,,,mf,002,2019_Oct_05_1438,StressSession,3.2.3,60.02988283766041,
22,green,440,1.0,,,,,,0,21,21,21,,,,,,,,,,,,,,,,,,,,,mf,002,2019_Oct_05_1438,StressSession,3.2.3,60.02988283766041,
23,green,440,1.0,,,,,,0,22,22,22,,,,,,,,,,,,,,,,,,,,,mf,002,2019_Oct_05_1438,StressSession,3.2.3,60.02988283766041,
24,green,440,1.0,,,,,,0,23,23,23,,,,,,,,,,,,,,,,,,,,,mf,002,2019_Oct_05_1438,StressSession,3.2.3,60.02988283766041,
25,green,440,1.0,,,,,,0,24,24,24,,,,,,,,,,,,,,,,,,,,,mf,002,2019_Oct_05_1438,StressSession,3.2.3,60.02988283766041,
26,green,440,1.0,,,,,,0,25,25,25,,,,,,,,,,,,,,,,,,,,,mf,002,2019_Oct_05_1438,StressSession,3.2.3,60.02988283766041,
27,green,440,1.0,,,,,,0,26,26,26,,,,,,,,,,,,,,,,,,,,,mf,002,2019_Oct_05_1438,StressSession,3.2.3,60.02988283766041,
28,green,440,1.0,,,,,,0,27,27,27,,,,,,,,,,,,,,,,,,,,,mf,002,2019_Oct_05_1438,StressSession,3.2.3,60.02988283766041,
29,green,440,1.0,,,,,,0,28,28,28,,,,,,,,,,,,,,,,,,,,,mf,002,2019_Oct_05_1438,StressSession,3.2.3,60.02988283766041,
30,green,440,1.0,,,,,,0,29,29,29,,,,,,,,,,,,,,,,,,,,,mf,002,2019_Oct_05_1438,StressSession,3.2.3,60.02988283766041,
31,green,440,1.0,,,,,,0,30,30,30,,,,,,,,,,,,,,,,,,,,,mf,002,2019_Oct_05_1438,StressSession,3.2.3,60.02988283766041,
32,green,440,1.0,,,,,,0,31,31,31,,,,,,,,,,,,,,,,,,,,,mf,002,2019_Oct_05_1438,StressSession,3.2.3,60.02988283766041,
33,green,440,1.0,,,,,,0,32,32,32,,,,,,,,,,,,,,,,,,,,,mf,002,2019_Oct_05_1438,StressSession,3.2.3,60.02988283766041,
34,green,440,1.0,,,,,,0,33,33,33,,,,,,,,,,,,,,,,,,,,,mf,002,2019_Oct_05_1438,StressSession,3.2.3,60.02988283766041,
35,green,440,1.0,,,,,,0,34,34,34,,,,,,,,,,,,,,,,,,,,,mf,002,2019_Oct_05_1438,StressSession,3.2.3,60.02988283766041,
36,green,440,1.0,,,,,,0,35,35,35,,,,,,,,,,,,,,,,,,,,,mf,002,2019_Oct_05_1438,StressSession,3.2.3,60.02988283766041,
37,green,440,1.0,,,,,,0,36,36,36,,,,,,,,,,,,,,,,,,,,,mf,002,2019_Oct_05_1438,StressSession,3.2.3,60.02988283766041,
38,green,440,1.0,,,,,,0,37,37,37,,,,,,,,,,,,,,,,,,,,,mf,002,2019_Oct_05_1438,StressSession,3.2.3,60.02988283766041,
39,green,440,1.0,,,,,,0,38,38,38,,,,,,,,,,,,,,,,,,,,,mf,002,2019_Oct_05_1438,StressSession,3.2.3,60.02988283766041,
40,green,440,1.0,,,,,,0,39,39,39,,,,,,,,,,,,,,,,,,,,,mf,002,2019_Oct_05_1438,StressSession,3.2.3,60.02988283766041,
41,green,440,1.0,,,,,,0,40,40,40,,,,,,,,,,,,,,,,,,,,,mf,002,2019_Oct_05_1438,StressSession,3.2.3,60.02988283766041,
42,green,440,1.0,,,,,,0,41,41,41,,,,,,,,,,,,,,,,,,,,,mf,002,2019_Oct_05_1438,StressSession,3.2.3,60.02988283766041,
43,green,440,1.0,,,,,,0,42,42,42,,,,,,,,,,,,,,,,,,,,,mf,002,2019_Oct_05_1438,StressSession,3.2.3,60.02988283766041,
44,green,440,1.0,,,,,,0,43,43,43,,,,,,,,,,,,,,,,,,,,,mf,002,2019_Oct_05_1438,StressSession,3.2.3,60.02988283766041,
45,green,440,1.0,,,,,,0,44,44,44,,,,,,,,,,,,,,,,,,,,,mf,002,2019_Oct_05_1438,StressSession,3.2.3,60.02988283766041,
46,green,440,1.0,,,,,,0,45,45,45,,,,,,,,,,,,,,,,,,,,,mf,002,2019_Oct_05_1438,StressSession,3.2.3,60.02988283766041,
47,green,440,1.0,,,,,,0,46,46,46,,,,,,,,,,,,,,,,,,,,,mf,002,2019_Oct_05_1438,StressSession,3.2.3,60.02988283766041,
48,green,440,1.0,,,,,,0,47,47,47,,,,,,,,,,,,,,,,,,,,,mf,002,2019_Oct_05_1438,StressSession,3.2.3,60.02988283766041,
49,green,440,1.0,,,,,,0,48,48,48,,,,,,,,,,,,,,,,,,,,,mf,002,2019_Oct_05_1438,StressSession,3.2.3,60.02988283766041,
50,green,440,1.0,,,,,,0,49,49,49,,,,,,,,,,,,,,,,,,,,,mf,002,2019_Oct_05_1438,StressSession,3.2.3,60.02988283766041,
51,green,440,1.0,,,,,,0,50,50,50,,,,,,,,,,,,,,,,,,,,,mf,002,2019_Oct_05_1438,StressSession,3.2.3,60.02988283766041,
52,green,440,1.0,,,,,,0,51,51,51,,,,,,,,,,,,,,,,,,,,,mf,002,2019_Oct_05_1438,StressSession,3.2.3,60.02988283766041,
53,green,440,1.0,,,,,,0,52,52,52,,,,,,,,,,,,,,,,,,,,,mf,002,2019_Oct_05_1438,StressSession,3.2.3,60.02988283766041,
54,green,440,1.0,,,,,,0,53,53,53,,,,,,,,,,,,,,,,,,,,,mf,002,2019_Oct_05_1438,StressSession,3.2.3,60.02988283766041,
55,green,440,1.0,,,,,,0,54,54,54,,,,,,,,,,,,,,,,,,,,,mf,002,2019_Oct_05_1438,StressSession,3.2.3,60.02988283766041,
56,green,440,1.0,,,,,,0,55,55,55,,,,,,,,,,,,,,,,,,,,,mf,002,2019_Oct_05_1438,StressSession,3.2.3,60.02988283766041,
57,green,440,1.0,,,,,,0,56,56,56,,,,,,,,,,,,,,,,,,,,,mf,002,2019_Oct_05_1438,StressSession,3.2.3,60.02988283766041,
58,green,440,1.0,,,,,,0,57,57,57,,,,,,,,,,,,,,,,,,,,,mf,002,2019_Oct_05_1438,StressSession,3.2.3,60.02988283766041,
59,green,440,1.0,,,,,,0,58,58,58,,,,,,,,,,,,,,,,,,,,,mf,002,2019_Oct_05_1438,StressSession,3.2.3,60.02988283766041,
60,green,440,1.0,,,,,,0,59,59,59,,,,,,,,,,,,,,,,,,,,,mf,002,2019_Oct_05_1438,StressSession,3.2.3,60.02988283766041,
61,green,440,1.0,,,,,,0,60,60,60,,,,,,,,,,,,,,,,,,,,,mf,002,2019_Oct_05_1438,StressSession,3.2.3,60.02988283766041,
62,green,440,1.0,,,,,,0,61,61,61,,,,,,,,,,,,,,,,,,,,,mf,002,2019_Oct_05_1438,StressSession,3.2.3,60.02988283766041,
63,green,440,1.0,,,,,,0,62,62,62,,,,,,,,,,,,,,,,,,,,,mf,002,2019_Oct_05_1438,StressSession,3.2.3,60.02988283766041,
64,green,440,1.0,,,,,,0,63,63,63,,,,,,,,,,,,,,,,,,,,,mf,002,2019_Oct_05_1438,StressSession,3.2.3,60.02988283766041,
65,green,440,1.0,,,,,,0,64,64,64,,,,,,,,,,,,,,,,,,,,,mf,002,2019_Oct_05_1438,StressSession,3.2.3,60.02988283766041,
66,green,440,1.0,,,,,,0,65,65,65,,,,,,,,,,,,,,,,,,,,,mf,002,2019_Oct_05_1438,StressSession,3.2.3,60.02988283766041,
67,green,440,1.0,,,,,,0,66,66,66,,,,,,,,,,,,,,,,,,,,,mf,002,2019_Oct_05_1438,StressSession,3.2.3,60.02988283766041,
68,green,440,1.0,,,,,,0,67,67,67,,,,,,,,,,,,,,,,,,,,,mf,002,2019_Oct_05_1438,StressSession,3.2.3,60.02988283766041,
69,green,440,1.0,,,,,,0,68,68,68,,,,,,,,,,,,,,,,,,,,,mf,002,2019_Oct_05_1438,StressSession,3.2.3,60.02988283766041,
70,green,440,1.0,,,,,,0,69,69,69,,,,,,,,,,,,,,,,,,,,,mf,002,2019_Oct_05_1438,StressSession,3.2.3,60.02988283766041,
71,green,440,1.0,,,,,,0,70,70,70,,,,,,,,,,,,,,,,,,,,,mf,002,2019_Oct_05_1438,StressSession,3.2.3,60.02988283766041,
72,green,440,1.0,,,,,,0,71,71,71,,,,,,,,,,,,,,,,,,,,,mf,002,2019_Oct_05_1438,StressSession,3.2.3,60.02988283766041,
73,green,440,1.0,,,,,,0,72,72,72,,,,,,,,,,,,,,,,,,,,,mf,002,2019_Oct_05_1438,StressSession,3.2.3,60.02988283766041,
74,green,440,1.0,,,,,,0,73,73,73,,,,,,,,,,,,,,,,,,,,,mf,002,2019_Oct_05_1438,StressSession,3.2.3,60.02988283766041,
75,green,440,1.0,,,,,,0,74,74,74,,,,,,,,,,,,,,,,,,,,,mf,002,2019_Oct_05_1438,StressSession,3.2.3,60.02988283766041,
76,green,440,1.0,,,,,,0,75,75,75,,,,,,,,,,,,,,,,,,,,,mf,002,2019_Oct_05_1438,StressSession,3.2.3,60.02988283766041,
77,green,440,1.0,,,,,,0,76,76,76,,,,,,,,,,,,,,,,,,,,,mf,002,2019_Oct_05_1438,StressSession,3.2.3,60.02988283766041,
78,green,440,1.0,,,,,,0,77,77,77,,,,,,,,,,,,,,,,,,,,,mf,002,2019_Oct_05_1438,StressSession,3.2.3,60.02988283766041,
79,green,440,1.0,,,,,,0,78,78,78,,,,,,,,,,,,,,,,,,,,,mf,002,2019_Oct_05_1438,StressSession,3.2.3,60.02988283766041,
80,green,440,1.0,,,,,,0,79,79,79,,,,,,,,,,,,,,,,,,,,,mf,002,2019_Oct_05_1438,StressSession,3.2.3,60.02988283766041,
81,green,440,1.0,,,,,,0,80,80,80,,,,,,,,,,,,,,,,,,,,,mf,002,2019_Oct_05_1438,StressSession,3.2.3,60.02988283766041,
82,green,440,1.0,,,,,,0,81,81,81,,,,,,,,,,,,,,,,,,,,,mf,002,2019_Oct_05_1438,StressSession,3.2.3,60.02988283766041,
83,green,440,1.0,,,,,,0,82,82,82,,,,,,,,,,,,,,,,,,,,,mf,002,2019_Oct_05_1438,StressSession,3.2.3,60.02988283766041,
84,green,440,1.0,,,,,,0,83,83,83,,,,,,,,,,,,,,,,,,,,,mf,002,2019_Oct_05_1438,StressSession,3.2.3,60.02988283766041,
85,green,440,1.0,,,,,,0,84,84,84,,,,,,,,,,,,,,,,,,,,,mf,002,2019_Oct_05_1438,StressSession,3.2.3,60.02988283766041,
86,green,440,1.0,,,,,,0,85,85,85,,,,,,,,,,,,,,,,,,,,,mf,002,2019_Oct_05_1438,StressSession,3.2.3,60.02988283766041,
87,green,440,1.0,,,,,,0,86,86,86,,,,,,,,,,,,,,,,,,,,,mf,002,2019_Oct_05_1438,StressSession,3.2.3,60.02988283766041,
88,green,440,1.0,,,,,,0,87,87,87,,,,,,,,,,,,,,,,,,,,,mf,002,2019_Oct_05_1438,StressSession,3.2.3,60.02988283766041,
89,green,440,1.0,,,,,,0,88,88,88,,,,,,,,,,,,,,,,,,,,,mf,002,2019_Oct_05_1438,StressSession,3.2.3,60.02988283766041,
90,green,440,1.0,,,,,,0,89,89,89,,,,,,,,,,,,,,,,,,,,,mf,002,2019_Oct_05_1438,StressSession,3.2.3,60.02988283766041,
91,green,440,1.0,,,,,,0,90,90,90,,,,,,,,,,,,,,,,,,,,,mf,002,2019_Oct_05_1438,StressSession,3.2.3,60.02988283766041,
92,green,440,1.0,,,,,,0,91,91,91,,,,,,,,,,,,,,,,,,,,,mf,002,2019_Oct_05_1438,StressSession,3.2.3,60.02988283766041,
93,green,440,1.0,,,,,,0,92,92,92,,,,,,,,,,,,,,,,,,,,,mf,002,2019_Oct_05_1438,StressSession,3.2.3,60.02988283766041,
94,green,440,1.0,,,,,,0,93,93,93,,,,,,,,,,,,,,,,,,,,,mf,002,2019_Oct_05_1438,StressSession,3.2.3,60.02988283766041,
95,green,440,1.0,,,,,,0,94,94,94,,,,,,,,,,,,,,,,,,,,,mf,002,2019_Oct_05_1438,StressSession,3.2.3,60.02988283766041,
96,green,440,1.0,,,,,,0,95,95,95,,,,,,,,,,,,,,,,,,,,,mf,002,2019_Oct_05_1438,StressSession,3.2.3,60.02988283766041,
97,green,440,1.0,,,,,,0,96,96,96,,,,,,,,,,,,,,,,,,,,,mf,002,2019_Oct_05_1438,StressSession,3.2.3,60.02988283766041,
98,green,440,1.0,,,,,,0,97,97,97,,,,,,,,,,,,,,,,,,,,,mf,002,2019_Oct_05_1438,StressSession,3.2.3,60.02988283766041,
99,green,440,1.0,,,,,,0,98,98,98,,,,,,,,,,,,,,,,,,,,,mf,002,2019_Oct_05_1438,StressSession,3.2.3,60.02988283766041,
100,green,440,1.0,,,,,,0,99,99,99,,,,,,,,,,,,,,,,,,,,,mf,002,2019_Oct_05_1438,StressSession,3.2.3,60.02988283766041,
101,green,440,1.0,,,,,,0,100,100,100,,,,,,,,,,,,,,,,,,,,,mf,002,2019_Oct_05_1438,StressSession,3.2.3,60.02988283766041,
102,green,440,1.0,,,,,,0,101,101,101,,,,,,,,,,,,,,,,,,,,,mf,002,2019_Oct_05_1438,StressSession,3.2.3,60.02988283766041,
103,green,440,1.0,,,,,,0,102,102,102,,,,,,,,,,,,,,,,,,,,,mf,002,2019_Oct_05_1438,StressSession,3.2.3,60.02988283766041,
104,green,440,1.0,,,,,,0,103,103,103,,,,,,,,,,,,,,,,,,,,,mf,002,2019_Oct_05_1438,StressSession,3.2.3,60.02988283766041,
105,green,440,1.0,,,,,,0,104,104,104,,,,,,,,,,,,,,,,,,,,,mf,002,2019_Oct_05_1438,StressSession,3.2.3,60.02988283766041,
106,green,440,1.0,,,,,,0,105,105,105,,,,,,,,,,,,,,,,,,,,,mf,002,2019_Oct_05_1438,StressSession,3.2.3,60.02988283766041,
107,green,440,1.0,,,,,,0,106,106,106,,,,,,,,,,,,,,,,,,,,,mf,002,2019_Oct_05_1438,StressSession,3.2.3,60.02988283766041,
108,green,440,1.0,,,,,,0,107,107,107,,,,,,,,,,,,,,,,,,,,,mf,002,2019_Oct_05_1438,StressSession,3.2.3,60.02988283766041,
109,green,440,1.0,,,,,,0,108,108,108,,,,,,,,,,,,,,,,,,,,,mf,002,2019_Oct_05_1438,StressSession,3.2.3,60.02988283766041,
110,green,440,1.0,,,,,,0,109,109,109,,,,,,,,,,,,,,,,,,,,,mf,002,2019_Oct_05_1438,StressSession,3.2.3,60.02988283766041,
111,green,440,1.0,,,,,,0,110,110,110,,,,,,,,,,,,,,,,,,,,,mf,002,2019_Oct_05_1438,StressSession,3.2.3,60.02988283766041,
112,green,440,1.0,,,,,,0,111,111,111,,,,,,,,,,,,,,,,,,,,,mf,002,2019_Oct_05_1438,StressSession,3.2.3,60.02988283766041,
113,green,440,1.0,,,,,,0,112,112,112,,,,,,,,,,,,,,,,,,,,,mf,002,2019_Oct_05_1438,StressSession,3.2.3,60.02988283766041,
114,green,440,1.0,,,,,,0,113,113,113,,,,,,,,,,,,,,,,,,,,,mf,002,2019_Oct_05_1438,StressSession,3.2.3,60.02988283766041,
115,green,440,1.0,,,,,,0,114,114,114,,,,,,,,,,,,,,,,,,,,,mf,002,2019_Oct_05_1438,StressSession,3.2.3,60.02988283766041,
116,green,440,1.0,,,,,,0,115,115,115,,,,,,,,,,,,,,,,,,,,,mf,002,2019_Oct_05_1438,StressSession,3.2.3,60.02988283766041,
117,green,440,1.0,,,,,,0,116,116,116,,,,,,,,,,,,,,,,,,,,,mf,002,2019_Oct_05_1438,StressSession,3.2.3,60.02988283766041,
118,green,440,1.0,,,,,,0,117,117,117,,,,,,,,,,,,,,,,,,,,,mf,002,2019_Oct_05_1438,StressSession,3.2.3,60.02988283766041,
119,green,440,1.0,,,,,,0,118,118,118,,,,,,,,,,,,,,,,,,,,,mf,002,2019_Oct_05_1438,StressSession,3.2.3,60.02988283766041,
120,green,440,1.0,,,,,,0,119,119,119,,,,,,,,,,,,,,,,,,,,,mf,002,2019_Oct_05_1438,StressSession,3.2.3,60.02988283766041,
121,green,440,1.0,,,,,,0,120,120,120,,,,,,,,,,,,,,,,,,,,,mf,002,2019_Oct_05_1438,StressSession,3.2.3,60.02988283766041,
122,green,440,1.0,,,,,,0,121,121,121,,,,,,,,,,,,,,,,,,,,,mf,002,2019_Oct_05_1438,StressSession,3.2.3,60.02988283766041,
123,green,440,1.0,,,,,,0,122,122,122,,,,,,,,,,,,,,,,,,,,,mf,002,2019_Oct_05_1438,StressSession,3.2.3,60.02988283766041,
124,green,440,1.0,,,,,,0,123,123,123,,,,,,,,,,,,,,,,,,,,,mf,002,2019_Oct_05_1438,StressSession,3.2.3,60.02988283766041,
125,green,440,1.0,,,,,,0,124,124,124,,,,,,,,,,,,,,,,,,,,,mf,002,2019_Oct_05_1438,StressSession,3.2.3,60.02988283766041,
126,green,440,1.0,,,,,,0,125,125,125,,,,,,,,,,,,,,,,,,,,,mf,002,2019_Oct_05_1438,StressSession,3.2.3,60.02988283766041,
127,green,440,1.0,,,,,,0,126,126,126,,,,,,,,,,,,,,,,,,,,,mf,002,2019_Oct_05_1438,StressSession,3.2.3,60.02988283766041,
128,green,440,1.0,,,,,,0,127,127,127,,,,,,,,,,,,,,,,,,,,,mf,002,2019_Oct_05_1438,StressSession,3.2.3,60.02988283766041,
129,green,440,1.0,,,,,,0,128,128,128,,,,,,,,,,,,,,,,,,,,,mf,002,2019_Oct_05_1438,StressSession,3.2.3,60.02988283766041,
130,green,440,1.0,,,,,,0,129,129,129,,,,,,,,,,,,,,,,,,,,,mf,002,2019_Oct_05_1438,StressSession,3.2.3,60.02988283766041,
131,green,440,1.0,,,,,,0,130,130,130,,,,,,,,,,,,,,,,,,,,,mf,002,2019_Oct_05_1438,StressSession,3.2.3,60.02988283766041,
132,green,440,1.0,,,,,,0,131,131,131,,,,,,,,,,,,,,,,,,,,,mf,002,2019_Oct_05_1438,StressSession,3.2.3,60.02988283766041,
133,green,440,1.0,,,,,,0,132,132,132,,,,,,,,,,,,,,,,,,,,,mf,002,2019_Oct_05_1438,StressSession,3.2.3,60.02988283766041,
134,green,440,1.0,,,,,,0,133,133,133,,,,,,,,,,,,,,,,,,,,,mf,002,2019_Oct_05_1438,StressSession,3.2.3,60.02988283766041,
135,green,440,1.0,,,,,,0,134,134,134,,,,,,,,,,,,,,,,,,,,,mf,002,2019_Oct_05_1438,StressSession,3.2.3,60.02988283766041,
136,green,440,1.0,,,,,,0,135,135,135,,,,,,,,,,,,,,,,,,,,,mf,002,2019_Oct_05_1438,StressSession,3.2.3,60.02988283766041,
137,green,440,1.0,,,,,,0,136,136,136,,,,,,,,,,,,,,,,,,,,,mf,002,2019_Oct_05_1438,StressSession,3.2.3,60.02988283766041,
138,green,440,1.0,,,,,,0,137,137,137,,,,,,,,,,,,,,,,,,,,,mf,002,2019_Oct_05_1438,StressSession,3.2.3,60.02988283766041,
139,green,440,1.0,,,,,,0,138,138,138,,,,,,,,,,,,,,,,,,,,,mf,002,2019_Oct_05_1438,StressSession,3.2.3,60.02988283766041,
140,green,440,1.0,,,,,,0,139,139,139,,,,,,,,,,,,,,,,,,,,,mf,002,2019_Oct_05_1438,StressSession,3.2.3,60.02988283766041,
141,green,440,1.0,,,,,,0,140,140,140,,,,,,,,,,,,,,,,,,,,,mf,002,2019_Oct_05_1438,StressSession,3.2.3,60.02988283766041,
142,green,440,1.0,,,,,,0,141,141,141,,,,,,,,,,,,,,,,,,,,,mf,002,2019_Oct_05_1438,StressSession,3.2.3,60.02988283766041,
143,green,440,1.0,,,,,,0,142,142,142,,,,,,,,,,,,,,,,,,,,,mf,002,2019_Oct_05_1438,StressSession,3.2.3,60.02988283766041,
144,green,440,1.0,,,,,,0,143,143,143,,,,,,,,,,,,,,,,,,,,,mf,002,2019_Oct_05_1438,StressSession,3.2.3,60.02988283766041,
145,green,440,1.0,,,,,,0,144,144,144,,,,,,,,,,,,,,,,,,,,,mf,002,2019_Oct_05_1438,StressSession,3.2.3,60.02988283766041,
146,green,440,1.0,,,,,,0,145,145,145,,,,,,,,,,,,,,,,,,,,,mf,002,2019_Oct_05_1438,StressSession,3.2.3,60.02988283766041,
147,green,440,1.0,,,,,,0,146,146,146,,,,,,,,,,,,,,,,,,,,,mf,002,2019_Oct_05_1438,StressSession,3.2.3,60.02988283766041,
148,green,440,1.0,,,,,,0,147,147,147,,,,,,,,,,,,,,,,,,,,,mf,002,2019_Oct_05_1438,StressSession,3.2.3,60.02988283766041,
149,green,440,1.0,,,,,,0,148,148,148,,,,,,,,,,,,,,,,,,,,,mf,002,2019_Oct_05_1438,StressSession,3.2.3,60.02988283766041,
150,green,440,1.0,,,,,,0,149,149,149,,,,,,,,,,,,,,,,,,,,,mf,002,2019_Oct_05_1438,StressSession,3.2.3,60.02988283766041,
151,green,440,1.0,,,,,,0,150,150,150,,,,,,,,,,,,,,,,,,,,,mf,002,2019_Oct_05_1438,StressSession,3.2.3,60.02988283766041,
152,green,440,1.0,,,,,,0,151,151,151,,,,,,,,,,,,,,,,,,,,,mf,002,2019_Oct_05_1438,StressSession,3.2.3,60.02988283766041,
153,green,440,1.0,,,,,,0,152,152,152,,,,,,,,,,,,,,,,,,,,,mf,002,2019_Oct_05_1438,StressSession,3.2.3,60.02988283766041,
154,green,440,1.0,,,,,,0,153,153,153,,,,,,,,,,,,,,,,,,,,,mf,002,2019_Oct_05_1438,StressSession,3.2.3,60.02988283766041,
155,green,440,1.0,,,,,,0,154,154,154,,,,,,,,,,,,,,,,,,,,,mf,002,2019_Oct_05_1438,StressSession,3.2.3,60.02988283766041,
156,green,440,1.0,,,,,,0,155,155,155,,,,,,,,,,,,,,,,,,,,,mf,002,2019_Oct_05_1438,StressSession,3.2.3,60.02988283766041,
157,green,440,1.0,,,,,,0,156,156,156,,,,,,,,,,,,,,,,,,,,,mf,002,2019_Oct_05_1438,StressSession,3.2.3,60.02988283766041,
158,green,440,1.0,,,,,,0,157,157,157,,,,,,,,,,,,,,,,,,,,,mf,002,2019_Oct_05_1438,StressSession,3.2.3,60.02988283766041,
159,green,440,1.0,,,,,,0,158,158,158,,,,,,,,,,,,,,,,,,,,,mf,002,2019_Oct_05_1438,StressSession,3.2.3,60.02988283766041,
160,green,440,1.0,,,,,,0,159,159,159,,,,,,,,,,,,,,,,,,,,,mf,002,2019_Oct_05_1438,StressSession,3.2.3,60.02988283766041,
161,green,440,1.0,,,,,,0,160,160,160,,,,,,,,,,,,,,,,,,,,,mf,002,2019_Oct_05_1438,StressSession,3.2.3,60.02988283766041,
162,green,440,1.0,,,,,,0,161,161,161,,,,,,,,,,,,,,,,,,,,,mf,002,2019_Oct_05_1438,StressSession,3.2.3,60.02988283766041,
163,green,440,1.0,,,,,,0,162,162,162,,,,,,,,,,,,,,,,,,,,,mf,002,2019_Oct_05_1438,StressSession,3.2.3,60.02988283766041,
164,green,440,1.0,,,,,,0,163,163,163,,,,,,,,,,,,,,,,,,,,,mf,002,2019_Oct_05_1438,StressSession,3.2.3,60.02988283766041,
165,green,440,1.0,,,,,,0,164,164,164,,,,,,,,,,,,,,,,,,,,,mf,002,2019_Oct_05_1438,StressSession,3.2.3,60.02988283766041,
166,green,440,1.0,,,,,,0,165,165,165,,,,,,,,,,,,,,,,,,,,,mf,002,2019_Oct_05_1438,StressSession,3.2.3,60.02988283766041,
167,green,440,1.0,,,,,,0,166,166,166,,,,,,,,,,,,,,,,,,,,,mf,002,2019_Oct_05_1438,StressSession,3.2.3,60.02988283766041,
168,green,440,1.0,,,,,,0,167,167,167,,,,,,,,,,,,,,,,,,,,,mf,002,2019_Oct_05_1438,StressSession,3.2.3,60.02988283766041,
169,green,440,1.0,,,,,,0,168,168,168,,,,,,,,,,,,,,,,,,,,,mf,002,2019_Oct_05_1438,StressSession,3.2.3,60.02988283766041,
170,green,440,1.0,,,,,,0,169,169,169,,,,,,,,,,,,,,,,,,,,,mf,002,2019_Oct_05_1438,StressSession,3.2.3,60.02988283766041,
171,green,440,1.0,,,,,,0,170,170,170,,,,,,,,,,,,,,,,,,,,,mf,002,2019_Oct_05_1438,StressSession,3.2.3,60.02988283766041,
172,green,440,1.0,,,,,,0,171,171,171,,,,,,,,,,,,,,,,,,,,,mf,002,2019_Oct_05_1438,StressSession,3.2.3,60.02988283766041,
173,green,440,1.0,,,,,,0,172,172,172,,,,,,,,,,,,,,,,,,,,,mf,002,2019_Oct_05_1438,StressSession,3.2.3,60.02988283766041,
174,green,440,1.0,,,,,,0,173,173,173,,,,,,,,,,,,,,,,,,,,,mf,002,2019_Oct_05_1438,StressSession,3.2.3,60.02988283766041,
175,green,440,1.0,,,,,,0,174,174,174,,,,,,,,,,,,,,,,,,,,,mf,002,2019_Oct_05_1438,StressSession,3.2.3,60.02988283766041,
176,green,440,1.0,,,,,,0,175,175,175,,,,,,,,,,,,,,,,,,,,,mf,002,2019_Oct_05_1438,StressSession,3.2.3,60.02988283766041,
177,green,440,1.0,,,,,,0,176,176,176,,,,,,,,,,,,,,,,,,,,,mf,002,2019_Oct_05_1438,StressSession,3.2.3,60.02988283766041,
178,green,440,1.0,,,,,,0,177,177,177,,,,,,,,,,,,,,,,,,,,,mf,002,2019_Oct_05_1438,StressSession,3.2.3,60.02988283766041,
179,green,440,1.0,,,,,,0,178,178,178,,,,,,,,,,,,,,,,,,,,,mf,002,2019_Oct_05_1438,StressSession,3.2.3,60.02988283766041,
180,yellow,880,0.5,,,,,,0,179,179,179,,,,,,,,,,,,,,,,,,,,,mf,002,2019_Oct_05_1438,StressSession,3.2.3,60.02988283766041,
181,yellow,880,0.5,,,,,,0,180,180,180,,,,,,,,,,,,,,,,,,,,,mf,002,2019_Oct_05_1438,StressSession,3.2.3,60.02988283766041,
182,yellow,880,0.5,,,,,,0,181,181,181,,,,,,,,,,,,,,,,,,,,,mf,002,2019_Oct_05_1438,StressSession,3.2.3,60.02988283766041,
183,yellow,880,0.5,,,,,,0,182,182,182,,,,,,,,,,,,,,,,,,,,,mf,002,2019_Oct_05_1438,StressSession,3.2.3,60.02988283766041,
184,yellow,880,0.5,,,,,,0,183,183,183,,,,,,,,,,,,,,,,,,,,,mf,002,2019_Oct_05_1438,StressSession,3.2.3,60.02988283766041,
185,yellow,880,0.5,,,,,,0,184,184,184,,,,,,,,,,,,,,,,,,,,,mf,002,2019_Oct_05_1438,StressSession,3.2.3,60.02988283766041,
186,yellow,880,0.5,,,,,,0,185,185,185,,,,,,,,,,,,,,,,,,,,,mf,002,2019_Oct_05_1438,StressSession,3.2.3,60.02988283766041,
187,yellow,880,0.5,,,,,,0,186,186,186,,,,,,,,,,,,,,,,,,,,,mf,002,2019_Oct_05_1438,StressSession,3.2.3,60.02988283766041,
188,yellow,880,0.5,,,,,,0,187,187,187,,,,,,,,,,,,,,,,,,,,,mf,002,2019_Oct_05_1438,StressSession,3.2.3,60.02988283766041,
189,yellow,880,0.5,,,,,,0,188,188,188,,,,,,,,,,,,,,,,,,,,,mf,002,2019_Oct_05_1438,StressSession,3.2.3,60.02988283766041,
190,yellow,880,0.5,,,,,,0,189,189,189,,,,,,,,,,,,,,,,,,,,,mf,002,2019_Oct_05_1438,StressSession,3.2.3,60.02988283766041,
191,yellow,880,0.5,,,,,,0,190,190,190,,,,,,,,,,,,,,,,,,,,,mf,002,2019_Oct_05_1438,StressSession,3.2.3,60.02988283766041,
192,yellow,880,0.5,,,,,,0,191,191,191,,,,,,,,,,,,,,,,,,,,,mf,002,2019_Oct_05_1438,StressSession,3.2.3,60.02988283766041,
193,yellow,880,0.5,,,,,,0,192,192,192,,,,,,,,,,,,,,,,,,,,,mf,002,2019_Oct_05_1438,StressSession,3.2.3,60.02988283766041,
194,yellow,880,0.5,,,,,,0,193,193,193,,,,,,,,,,,,,,,,,,,,,mf,002,2019_Oct_05_1438,StressSession,3.2.3,60.02988283766041,
195,yellow,880,0.5,,,,,,0,194,194,194,,,,,,,,,,,,,,,,,,,,,mf,002,2019_Oct_05_1438,StressSession,3.2.3,60.02988283766041,
196,yellow,880,0.5,,,,,,0,195,195,195,,,,,,,,,,,,,,,,,,,,,mf,002,2019_Oct_05_1438,StressSession,3.2.3,60.02988283766041,
197,yellow,880,0.5,,,,,,0,196,196,196,,,,,,,,,,,,,,,,,,,,,mf,002,2019_Oct_05_1438,StressSession,3.2.3,60.02988283766041,
198,yellow,880,0.5,,,,,,0,197,197,197,,,,,,,,,,,,,,,,,,,,,mf,002,2019_Oct_05_1438,StressSession,3.2.3,60.02988283766041,
199,yellow,880,0.5,,,,,,0,198,198,198,,,,,,,,,,,,,,,,,,,,,mf,002,2019_Oct_05_1438,StressSession,3.2.3,60.02988283766041,
200,yellow,880,0.5,,,,,,0,199,199,199,,,,,,,,,,,,,,,,,,,,,mf,002,2019_Oct_05_1438,StressSession,3.2.3,60.02988283766041,
201,yellow,880,0.5,,,,,,0,200,200,200,,,,,,,,,,,,,,,,,,,,,mf,002,2019_Oct_05_1438,StressSession,3.2.3,60.02988283766041,
202,yellow,880,0.5,,,,,,0,201,201,201,,,,,,,,,,,,,,,,,,,,,mf,002,2019_Oct_05_1438,StressSession,3.2.3,60.02988283766041,
203,yellow,880,0.5,,,,,,0,202,202,202,,,,,,,,,,,,,,,,,,,,,mf,002,2019_Oct_05_1438,StressSession,3.2.3,60.02988283766041,
204,yellow,880,0.5,,,,,,0,203,203,203,,,,,,,,,,,,,,,,,,,,,mf,002,2019_Oct_05_1438,StressSession,3.2.3,60.02988283766041,
205,yellow,880,0.5,,,,,,0,204,204,204,,,,,,,,,,,,,,,,,,,,,mf,002,2019_Oct_05_1438,StressSession,3.2.3,60.02988283766041,
206,yellow,880,0.5,,,,,,0,205,205,205,,,,,,,,,,,,,,,,,,,,,mf,002,2019_Oct_05_1438,StressSession,3.2.3,60.02988283766041,
207,yellow,880,0.5,,,,,,0,206,206,206,,,,,,,,,,,,,,,,,,,,,mf,002,2019_Oct_05_1438,StressSession,3.2.3,60.02988283766041,
208,yellow,880,0.5,,,,,,0,207,207,207,,,,,,,,,,,,,,,,,,,,,mf,002,2019_Oct_05_1438,StressSession,3.2.3,60.02988283766041,
209,yellow,880,0.5,,,,,,0,208,208,208,,,,,,,,,,,,,,,,,,,,,mf,002,2019_Oct_05_1438,StressSession,3.2.3,60.02988283766041,
210,yellow,880,0.5,,,,,,0,209,209,209,,,,,,,,,,,,,,,,,,,,,mf,002,2019_Oct_05_1438,StressSession,3.2.3,60.02988283766041,
211,yellow,880,0.5,,,,,,0,210,210,210,,,,,,,,,,,,,,,,,,,,,mf,002,2019_Oct_05_1438,StressSession,3.2.3,60.02988283766041,
212,yellow,880,0.5,,,,,,0,211,211,211,,,,,,,,,,,,,,,,,,,,,mf,002,2019_Oct_05_1438,StressSession,3.2.3,60.02988283766041,
213,yellow,880,0.5,,,,,,0,212,212,212,,,,,,,,,,,,,,,,,,,,,mf,002,2019_Oct_05_1438,StressSession,3.2.3,60.02988283766041,
214,yellow,880,0.5,,,,,,0,213,213,213,,,,,,,,,,,,,,,,,,,,,mf,002,2019_Oct_05_1438,StressSession,3.2.3,60.02988283766041,
215,yellow,880,0.5,,,,,,0,214,214,214,,,,,,,,,,,,,,,,,,,,,mf,002,2019_Oct_05_1438,StressSession,3.2.3,60.02988283766041,
216,yellow,880,0.5,,,,,,0,215,215,215,,,,,,,,,,,,,,,,,,,,,mf,002,2019_Oct_05_1438,StressSession,3.2.3,60.02988283766041,
217,yellow,880,0.5,,,,,,0,216,216,216,,,,,,,,,,,,,,,,,,,,,mf,002,2019_Oct_05_1438,StressSession,3.2.3,60.02988283766041,
218,yellow,880,0.5,,,,,,0,217,217,217,,,,,,,,,,,,,,,,,,,,,mf,002,2019_Oct_05_1438,StressSession,3.2.3,60.02988283766041,
219,yellow,880,0.5,,,,,,0,218,218,218,,,,,,,,,,,,,,,,,,,,,mf,002,2019_Oct_05_1438,StressSession,3.2.3,60.02988283766041,
220,yellow,880,0.5,,,,,,0,219,219,219,,,,,,,,,,,,,,,,,,,,,mf,002,2019_Oct_05_1438,StressSession,3.2.3,60.02988283766041,
221,yellow,880,0.5,,,,,,0,220,220,220,,,,,,,,,,,,,,,,,,,,,mf,002,2019_Oct_05_1438,StressSession,3.2.3,60.02988283766041,
222,yellow,880,0.5,,,,,,0,221,221,221,,,,,,,,,,,,,,,,,,,,,mf,002,2019_Oct_05_1438,StressSession,3.2.3,60.02988283766041,
223,yellow,880,0.5,,,,,,0,222,222,222,,,,,,,,,,,,,,,,,,,,,mf,002,2019_Oct_05_1438,StressSession,3.2.3,60.02988283766041,
224,yellow,880,0.5,,,,,,0,223,223,223,,,,,,,,,,,,,,,,,,,,,mf,002,2019_Oct_05_1438,StressSession,3.2.3,60.02988283766041,
225,yellow,880,0.5,,,,,,0,224,224,224,,,,,,,,,,,,,,,,,,,,,mf,002,2019_Oct_05_1438,StressSession,3.2.3,60.02988283766041,
226,yellow,880,0.5,,,,,,0,225,225,225,,,,,,,,,,,,,,,,,,,,,mf,002,2019_Oct_05_1438,StressSession,3.2.3,60.02988283766041,
227,yellow,880,0.5,,,,,,0,226,226,226,,,,,,,,,,,,,,,,,,,,,mf,002,2019_Oct_05_1438,StressSession,3.2.3,60.02988283766041,
228,yellow,880,0.5,,,,,,0,227,227,227,,,,,,,,,,,,,,,,,,,,,mf,002,2019_Oct_05_1438,StressSession,3.2.3,60.02988283766041,
229,yellow,880,0.5,,,,,,0,228,228,228,,,,,,,,,,,,,,,,,,,,,mf,002,2019_Oct_05_1438,StressSession,3.2.3,60.02988283766041,
230,yellow,880,0.5,,,,,,0,229,229,229,,,,,,,,,,,,,,,,,,,,,mf,002,2019_Oct_05_1438,StressSession,3.2.3,60.02988283766041,
231,yellow,880,0.5,,,,,,0,230,230,230,,,,,,,,,,,,,,,,,,,,,mf,002,2019_Oct_05_1438,StressSession,3.2.3,60.02988283766041,
232,yellow,880,0.5,,,,,,0,231,231,231,,,,,,,,,,,,,,,,,,,,,mf,002,2019_Oct_05_1438,StressSession,3.2.3,60.02988283766041,
233,yellow,880,0.5,,,,,,0,232,232,232,,,,,,,,,,,,,,,,,,,,,mf,002,2019_Oct_05_1438,StressSession,3.2.3,60.02988283766041,
234,yellow,880,0.5,,,,,,0,233,233,233,,,,,,,,,,,,,,,,,,,,,mf,002,2019_Oct_05_1438,StressSession,3.2.3,60.02988283766041,
235,yellow,880,0.5,,,,,,0,234,234,234,,,,,,,,,,,,,,,,,,,,,mf,002,2019_Oct_05_1438,StressSession,3.2.3,60.02988283766041,
236,yellow,880,0.5,,,,,,0,235,235,235,,,,,,,,,,,,,,,,,,,,,mf,002,2019_Oct_05_1438,StressSession,3.2.3,60.02988283766041,
237,yellow,880,0.5,,,,,,0,236,236,236,,,,,,,,,,,,,,,,,,,,,mf,002,2019_Oct_05_1438,StressSession,3.2.3,60.02988283766041,
238,yellow,880,0.5,,,,,,0,237,237,237,,,,,,,,,,,,,,,,,,,,,mf,002,2019_Oct_05_1438,StressSession,3.2.3,60.02988283766041,
239,yellow,880,0.5,,,,,,0,238,238,238,,,,,,,,,,,,,,,,,,,,,mf,002,2019_Oct_05_1438,StressSession,3.2.3,60.02988283766041,
240,red,1760,0.5,,,,,,0,239,239,239,,,,,,,,,,,,,,,,,,,,,mf,002,2019_Oct_05_1438,StressSession,3.2.3,60.02988283766041,
241,red,1760,0.5,,,,,,0,240,240,240,,,,,,,,,,,,,,,,,,,,,mf,002,2019_Oct_05_1438,StressSession,3.2.3,60.02988283766041,
242,red,1760,0.5,,,,,,0,241,241,241,,,,,,,,,,,,,,,,,,,,,mf,002,2019_Oct_05_1438,StressSession,3.2.3,60.02988283766041,
243,red,1760,0.5,,,,,,0,242,242,242,,,,,,,,,,,,,,,,,,,,,mf,002,2019_Oct_05_1438,StressSession,3.2.3,60.02988283766041,
244,red,1760,0.5,,,,,,0,243,243,243,,,,,,,,,,,,,,,,,,,,,mf,002,2019_Oct_05_1438,StressSession,3.2.3,60.02988283766041,
245,red,1760,0.5,,,,,,0,244,244,244,,,,,,,,,,,,,,,,,,,,,mf,002,2019_Oct_05_1438,StressSession,3.2.3,60.02988283766041,
246,red,1760,0.5,,,,,,0,245,245,245,,,,,,,,,,,,,,,,,,,,,mf,002,2019_Oct_05_1438,StressSession,3.2.3,60.02988283766041,
247,red,1760,0.5,,,,,,0,246,246,246,,,,,,,,,,,,,,,,,,,,,mf,002,2019_Oct_05_1438,StressSession,3.2.3,60.02988283766041,
248,red,1760,0.5,,,,,,0,247,247,247,,,,,,,,,,,,,,,,,,,,,mf,002,2019_Oct_05_1438,StressSession,3.2.3,60.02988283766041,
249,red,1760,0.5,,,,,,0,248,248,248,,,,,,,,,,,,,,,,,,,,,mf,002,2019_Oct_05_1438,StressSession,3.2.3,60.02988283766041,
250,red,1760,0.5,,,,,,0,249,249,249,,,,,,,,,,,,,,,,,,,,,mf,002,2019_Oct_05_1438,StressSession,3.2.3,60.02988283766041,
251,red,1760,0.5,,,,,,0,250,250,250,,,,,,,,,,,,,,,,,,,,,mf,002,2019_Oct_05_1438,StressSession,3.2.3,60.02988283766041,
252,red,1760,0.5,,,,,,0,251,251,251,,,,,,,,,,,,,,,,,,,,,mf,002,2019_Oct_05_1438,StressSession,3.2.3,60.02988283766041,
253,red,1760,0.5,,,,,,0,252,252,252,,,,,,,,,,,,,,,,,,,,,mf,002,2019_Oct_05_1438,StressSession,3.2.3,60.02988283766041,
254,red,1760,0.5,,,,,,0,253,253,253,,,,,,,,,,,,,,,,,,,,,mf,002,2019_Oct_05_1438,StressSession,3.2.3,60.02988283766041,
255,red,1760,0.5,,,,,,0,254,254,254,,,,,,,,,,,,,,,,,,,,,mf,002,2019_Oct_05_1438,StressSession,3.2.3,60.02988283766041,
256,red,1760,0.5,,,,,,0,255,255,255,,,,,,,,,,,,,,,,,,,,,mf,002,2019_Oct_05_1438,StressSession,3.2.3,60.02988283766041,
257,red,1760,0.5,,,,,,0,256,256,256,,,,,,,,,,,,,,,,,,,,,mf,002,2019_Oct_05_1438,StressSession,3.2.3,60.02988283766041,
258,red,1760,0.5,,,,,,0,257,257,257,,,,,,,,,,,,,,,,,,,,,mf,002,2019_Oct_05_1438,StressSession,3.2.3,60.02988283766041,
259,red,1760,0.5,,,,,,0,258,258,258,,,,,,,,,,,,,,,,,,,,,mf,002,2019_Oct_05_1438,StressSession,3.2.3,60.02988283766041,
260,red,1760,0.5,,,,,,0,259,259,259,,,,,,,,,,,,,,,,,,,,,mf,002,2019_Oct_05_1438,StressSession,3.2.3,60.02988283766041,
261,red,1760,0.5,,,,,,0,260,260,260,,,,,,,,,,,,,,,,,,,,,mf,002,2019_Oct_05_1438,StressSession,3.2.3,60.02988283766041,
262,red,1760,0.5,,,,,,0,261,261,261,,,,,,,,,,,,,,,,,,,,,mf,002,2019_Oct_05_1438,StressSession,3.2.3,60.02988283766041,
263,red,1760,0.5,,,,,,0,262,262,262,,,,,,,,,,,,,,,,,,,,,mf,002,2019_Oct_05_1438,StressSession,3.2.3,60.02988283766041,
264,red,1760,0.5,,,,,,0,263,263,263,,,,,,,,,,,,,,,,,,,,,mf,002,2019_Oct_05_1438,StressSession,3.2.3,60.02988283766041,
265,red,1760,0.5,,,,,,0,264,264,264,,,,,,,,,,,,,,,,,,,,,mf,002,2019_Oct_05_1438,StressSession,3.2.3,60.02988283766041,
266,red,1760,0.5,,,,,,0,265,265,265,,,,,,,,,,,,,,,,,,,,,mf,002,2019_Oct_05_1438,StressSession,3.2.3,60.02988283766041,
267,red,1760,0.5,,,,,,0,266,266,266,,,,,,,,,,,,,,,,,,,,,mf,002,2019_Oct_05_1438,StressSession,3.2.3,60.02988283766041,
268,red,1760,0.5,,,,,,0,267,267,267,,,,,,,,,,,,,,,,,,,,,mf,002,2019_Oct_05_1438,StressSession,3.2.3,60.02988283766041,
269,red,1760,0.5,,,,,,0,268,268,268,,,,,,,,,,,,,,,,,,,,,mf,002,2019_Oct_05_1438,StressSession,3.2.3,60.02988283766041,
270,red,1760,0.5,,,,,,0,269,269,269,,,,,,,,,,,,,,,,,,,,,mf,002,2019_Oct_05_1438,StressSession,3.2.3,60.02988283766041,
271,red,1760,0.5,,,,,,0,270,270,270,,,,,,,,,,,,,,,,,,,,,mf,002,2019_Oct_05_1438,StressSession,3.2.3,60.02988283766041,
272,red,1760,0.5,,,,,,0,271,271,271,,,,,,,,,,,,,,,,,,,,,mf,002,2019_Oct_05_1438,StressSession,3.2.3,60.02988283766041,
273,red,1760,0.5,,,,,,0,272,272,272,,,,,,,,,,,,,,,,,,,,,mf,002,2019_Oct_05_1438,StressSession,3.2.3,60.02988283766041,
274,red,1760,0.5,,,,,,0,273,273,273,,,,,,,,,,,,,,,,,,,,,mf,002,2019_Oct_05_1438,StressSession,3.2.3,60.02988283766041,
275,red,1760,0.5,,,,,,0,274,274,274,,,,,,,,,,,,,,,,,,,,,mf,002,2019_Oct_05_1438,StressSession,3.2.3,60.02988283766041,
276,red,1760,0.5,,,,,,0,275,275,275,,,,,,,,,,,,,,,,,,,,,mf,002,2019_Oct_05_1438,StressSession,3.2.3,60.02988283766041,
277,red,1760,0.5,,,,,,0,276,276,276,,,,,,,,,,,,,,,,,,,,,mf,002,2019_Oct_05_1438,StressSession,3.2.3,60.02988283766041,
278,red,1760,0.5,,,,,,0,277,277,277,,,,,,,,,,,,,,,,,,,,,mf,002,2019_Oct_05_1438,StressSession,3.2.3,60.02988283766041,
279,red,1760,0.5,,,,,,0,278,278,278,,,,,,,,,,,,,,,,,,,,,mf,002,2019_Oct_05_1438,StressSession,3.2.3,60.02988283766041,
280,red,1760,0.5,,,,,,0,279,279,279,,,,,,,,,,,,,,,,,,,,,mf,002,2019_Oct_05_1438,StressSession,3.2.3,60.02988283766041,
281,red,1760,0.5,,,,,,0,280,280,280,,,,,,,,,,,,,,,,,,,,,mf,002,2019_Oct_05_1438,StressSession,3.2.3,60.02988283766041,
282,red,1760,0.5,,,,,,0,281,281,281,,,,,,,,,,,,,,,,,,,,,mf,002,2019_Oct_05_1438,StressSession,3.2.3,60.02988283766041,
283,red,1760,0.5,,,,,,0,282,282,282,,,,,,,,,,,,,,,,,,,,,mf,002,2019_Oct_05_1438,StressSession,3.2.3,60.02988283766041,
284,red,1760,0.5,,,,,,0,283,283,283,,,,,,,,,,,,,,,,,,,,,mf,002,2019_Oct_05_1438,StressSession,3.2.3,60.02988283766041,
285,red,1760,0.5,,,,,,0,284,284,284,,,,,,,,,,,,,,,,,,,,,mf,002,2019_Oct_05_1438,StressSession,3.2.3,60.02988283766041,
286,red,1760,0.5,,,,,,0,285,285,285,,,,,,,,,,,,,,,,,,,,,mf,002,2019_Oct_05_1438,StressSession,3.2.3,60.02988283766041,
287,red,1760,0.5,,,,,,0,286,286,286,,,,,,,,,,,,,,,,,,,,,mf,002,2019_Oct_05_1438,StressSession,3.2.3,60.02988283766041,
288,red,1760,0.5,,,,,,0,287,287,287,,,,,,,,,,,,,,,,,,,,,mf,002,2019_Oct_05_1438,StressSession,3.2.3,60.02988283766041,
289,red,1760,0.5,,,,,,0,288,288,288,,,,,,,,,,,,,,,,,,,,,mf,002,2019_Oct_05_1438,StressSession,3.2.3,60.02988283766041,
290,red,1760,0.5,,,,,,0,289,289,289,,,,,,,,,,,,,,,,,,,,,mf,002,2019_Oct_05_1438,StressSession,3.2.3,60.02988283766041,
291,red,1760,0.5,,,,,,0,290,290,290,,,,,,,,,,,,,,,,,,,,,mf,002,2019_Oct_05_1438,StressSession,3.2.3,60.02988283766041,
292,red,1760,0.5,,,,,,0,291,291,291,,,,,,,,,,,,,,,,,,,,,mf,002,2019_Oct_05_1438,StressSession,3.2.3,60.02988283766041,
293,red,1760,0.5,,,,,,0,292,292,292,,,,,,,,,,,,,,,,,,,,,mf,002,2019_Oct_05_1438,StressSession,3.2.3,60.02988283766041,
294,red,1760,0.5,,,,,,0,293,293,293,,,,,,,,,,,,,,,,,,,,,mf,002,2019_Oct_05_1438,StressSession,3.2.3,60.02988283766041,
295,red,1760,0.5,,,,,,0,294,294,294,,,,,,,,,,,,,,,,,,,,,mf,002,2019_Oct_05_1438,StressSession,3.2.3,60.02988283766041,
296,red,1760,0.5,,,,,,0,295,295,295,,,,,,,,,,,,,,,,,,,,,mf,002,2019_Oct_05_1438,StressSession,3.2.3,60.02988283766041,
297,red,1760,0.5,,,,,,0,296,296,296,,,,,,,,,,,,,,,,,,,,,mf,002,2019_Oct_05_1438,StressSession,3.2.3,60.02988283766041,
298,red,1760,0.5,,,,,,0,297,297,297,,,,,,,,,,,,,,,,,,,,,mf,002,2019_Oct_05_1438,StressSession,3.2.3,60.02988283766041,
299,red,1760,0.5,,,,,,0,298,298,298,,,,,,,,,,,,,,,,,,,,,mf,002,2019_Oct_05_1438,StressSession,3.2.3,60.02988283766041,
300,red,1760,0.5,,,,,,0,299,299,299,,,,,,,,,,,,,,,,,,,,,mf,002,2019_Oct_05_1438,StressSession,3.2.3,60.02988283766041,
,,,,,,,,,,,,,,,,,,,2019-10-05_14:46:38,4,27.952,,,,,,,,,,,,mf,002,2019_Oct_05_1438,StressSession,3.2.3,60.02988283766041,
,,,,,,,,,,,,,,,,,,,,,,3,13.691,,,,,,,,,,mf,002,2019_Oct_05_1438,StressSession,3.2.3,60.02988283766041,
,,,,green,yellow,yellow,green,left,,,,,0,0,0,132,,,,,,,,2019-10-05_14:49:21,left,1.2150944001041353,668.737653600052,None,,,,,mf,002,2019_Oct_05_1438,StressSession,3.2.3,60.02988283766041,
,,,,orange,red,orange,red,right,,,,,0,1,1,64,,,,,,,,,right,1.6633011000230908,670.5142439999618,None,,,,,mf,002,2019_Oct_05_1438,StressSession,3.2.3,60.02988283766041,
,,,,yellow,red,red,yellow,left,,,,,0,2,2,165,,,,,,,,,left,1.61841950006783,672.7268557001371,None,,,,,mf,002,2019_Oct_05_1438,StressSession,3.2.3,60.02988283766041,
,,,,green,blue,blue,green,left,,,,,0,3,3,139,,,,,,,,,left,0.9972248000558466,674.8913249000907,None,,,,,mf,002,2019_Oct_05_1438,StressSession,3.2.3,60.02988283766041,
,,,,black,red,black,red,right,,,,,0,4,4,100,,,,,,,,,right,1.492371799889952,676.4443262999412,None,,,,,mf,002,2019_Oct_05_1438,StressSession,3.2.3,60.02988283766041,
,,,,yellow,magenta,yellow,magenta,right,,,,,0,5,5,58,,,,,,,,,right,1.4694364999886602,678.4918720000423,None,,,,,mf,002,2019_Oct_05_1438,StressSession,3.2.3,60.02988283766041,
,,,,orange,white,orange,white,right,,,,,0,6,6,62,,,,,,,,,right,1.230140300001949,680.5064288000576,None,,,,,mf,002,2019_Oct_05_1438,StressSession,3.2.3,60.02988283766041,
,,,,yellow,white,white,yellow,left,,,,,0,7,7,163,,,,,,,,,left,1.6649197000078857,682.2880891000386,None,,,,,mf,002,2019_Oct_05_1438,StressSession,3.2.3,60.02988283766041,
,,,,purple,cyan,purple,cyan,right,,,,,0,8,8,77,,,,,,,,,right,1.520061899907887,684.5053751999512,None,,,,,mf,002,2019_Oct_05_1438,StressSession,3.2.3,60.02988283766041,
,,,,orange,purple,orange,purple,right,,,,,0,9,9,60,,,,,,,,,right,1.5341028000693768,686.5785052999854,None,,,,,mf,002,2019_Oct_05_1438,StressSession,3.2.3,60.02988283766041,
,,,,cyan,yellow,cyan,yellow,right,,,,,0,10,10,40,,,,,,,,,right,0.9784797001630068,688.670267400099,None,,,,,mf,002,2019_Oct_05_1438,StressSession,3.2.3,60.02988283766041,
,,,,brown,cyan,brown,cyan,right,,,,,0,11,11,86,,,,,,,,,right,1.1289427001029253,690.199769699946,None,,,,,mf,002,2019_Oct_05_1438,StressSession,3.2.3,60.02988283766041,
,,,,purple,blue,blue,purple,left,,,,,0,12,12,184,,,,,,,,,left,1.409181399969384,691.8878071999643,None,,,,,mf,002,2019_Oct_05_1438,StressSession,3.2.3,60.02988283766041,
,,,,orange,yellow,orange,yellow,right,,,,,0,13,13,69,,,,,,,,,right,1.1562916000839323,693.8526676001493,None,,,,,mf,002,2019_Oct_05_1438,StressSession,3.2.3,60.02988283766041,
,,,,brown,magenta,brown,magenta,right,,,,,0,14,14,85,,,,,,,,,right,1.3133348999544978,695.5512568999548,None,,,,,mf,002,2019_Oct_05_1438,StressSession,3.2.3,60.02988283766041,
,,,,yellow,brown,yellow,brown,right,,,,,0,15,15,52,,,,,,,,,right,1.536058499943465,697.4166184000205,None,,,,,mf,002,2019_Oct_05_1438,StressSession,3.2.3,60.02988283766041,
,,,,brown,yellow,brown,yellow,right,,,,,0,16,16,87,,,,,,,,,right,1.0044662998989224,699.5008203999605,None,,,,,mf,002,2019_Oct_05_1438,StressSession,3.2.3,60.02988283766041,
,,,,purple,yellow,yellow,purple,left,,,,,0,17,17,188,,,,,,,,,left,1.1981983999721706,701.0507646999322,None,,,,,mf,002,2019_Oct_05_1438,StressSession,3.2.3,60.02988283766041,
,,,,brown,green,green,brown,left,,,,,0,18,18,194,,,,,,,,,left,0.8810805999673903,702.7997107999399,None,,,,,mf,002,2019_Oct_05_1438,StressSession,3.2.3,60.02988283766041,
,,,,purple,green,green,purple,left,,,,,0,19,19,185,,,,,,,,,left,1.3100036999676377,704.2275066999719,None,,,,,mf,002,2019_Oct_05_1438,StressSession,3.2.3,60.02988283766041,
,,,,red,black,red,black,right,,,,,0,20,20,9,,,,,,,,,right,1.193627499975264,706.1028160999995,None,,,,,mf,002,2019_Oct_05_1438,StressSession,3.2.3,60.02988283766041,
,,,,cyan,green,green,cyan,left,,,,,0,21,21,158,,,,,,,,,left,1.0508588999509811,707.8299859000836,None,,,,,mf,002,2019_Oct_05_1438,StressSession,3.2.3,60.02988283766041,
,,,,red,purple,purple,red,left,,,,,0,22,22,116,,,,,,,,,left,1.1386500000953674,709.4305529999547,None,,,,,mf,002,2019_Oct_05_1438,StressSession,3.2.3,60.02988283766041,
,,,,black,white,black,white,right,,,,,0,23,23,109,,,,,,,,,right,1.1452510999515653,711.1112279000226,None,,,,,mf,002,2019_Oct_05_1438,StressSession,3.2.3,60.02988283766041,
,,,,purple,red,red,purple,left,,,,,0,24,24,183,,,,,,,,,left,1.1091429002117366,712.8111843999941,None,,,,,mf,002,2019_Oct_05_1438,StressSession,3.2.3,60.02988283766041,
,,,,black,white,white,black,left,,,,,0,25,25,219,,,,,,,,,left,1.3472299000713974,714.4614137001336,None,,,,,mf,002,2019_Oct_05_1438,StressSession,3.2.3,60.02988283766041,
,,,,red,orange,orange,red,left,,,,,0,26,26,115,,,,,,,,,left,1.5949816000647843,716.3580954000354,None,,,,,mf,002,2019_Oct_05_1438,StressSession,3.2.3,60.02988283766041,
,,,,orange,purple,purple,orange,left,,,,,0,27,27,170,,,,,,,,,left,1.0698506999760866,718.4989921001252,None,,,,,mf,002,2019_Oct_05_1438,StressSession,3.2.3,60.02988283766041,
,,,,white,blue,blue,white,left,,,,,0,28,28,202,,,,,,,,,left,1.3391631001140922,720.117841700092,None,,,,,mf,002,2019_Oct_05_1438,StressSession,3.2.3,60.02988283766041,
,,,,orange,blue,orange,blue,right,,,,,0,29,29,65,,,,,,,,,right,1.7058085000608116,722.0147138000466,None,,,,,mf,002,2019_Oct_05_1438,StressSession,3.2.3,60.02988283766041,
,,,,yellow,orange,orange,yellow,left,,,,,0,30,30,160,,,,,,,,,left,1.1098219000268728,724.2746568999719,None,,,,,mf,002,2019_Oct_05_1438,StressSession,3.2.3,60.02988283766041,
,,,,black,yellow,yellow,black,left,,,,,0,31,31,215,,,,,,,,,left,0.9900129998568445,725.9308877999429,None,,,,,mf,002,2019_Oct_05_1438,StressSession,3.2.3,60.02988283766041,
,,,,cyan,red,cyan,red,right,,,,,0,32,32,46,,,,,,,,,right,1.0004860998596996,727.471970200073,None,,,,,mf,002,2019_Oct_05_1438,StressSession,3.2.3,60.02988283766041,
,,,,yellow,blue,blue,yellow,left,,,,,0,33,33,166,,,,,,,,,left,1.0532144999597222,729.0282332000788,None,,,,,mf,002,2019_Oct_05_1438,StressSession,3.2.3,60.02988283766041,
,,,,yellow,magenta,magenta,yellow,left,,,,,0,34,34,168,,,,,,,,,left,1.233397699892521,730.6153915999457,None,,,,,mf,002,2019_Oct_05_1438,StressSession,3.2.3,60.02988283766041,
,,,,yellow,green,yellow,green,right,,,,,0,35,35,57,,,,,,,,,right,1.3740085000172257,732.3865042000543,None,,,,,mf,002,2019_Oct_05_1438,StressSession,3.2.3,60.02988283766041,
,,,,green,cyan,green,cyan,right,,,,,0,36,36,21,,,,,,,,,right,1.49562820000574,734.3052704001311,None,,,,,mf,002,2019_Oct_05_1438,StressSession,3.2.3,60.02988283766041,
,,,,brown,purple,purple,brown,left,,,,,0,37,37,199,,,,,,,,,left,1.5839752999600023,736.3616496999748,None,,,,,mf,002,2019_Oct_05_1438,StressSession,3.2.3,60.02988283766041,
,,,,black,magenta,black,magenta,right,,,,,0,38,38,103,,,,,,,,,right,0.8726832999382168,738.4887217001524,None,,,,,mf,002,2019_Oct_05_1438,StressSession,3.2.3,60.02988283766041,
,,,,blue,white,blue,white,right,,,,,0,39,39,17,,,,,,,,,right,0.9103212999179959,739.90663089999,None,,,,,mf,002,2019_Oct_05_1438,StressSession,3.2.3,60.02988283766041,
,,,,brown,orange,orange,brown,left,,,,,0,40,40,198,,,,,,,,,left,1.1698061998467892,741.3753814999945,None,,,,,mf,002,2019_Oct_05_1438,StressSession,3.2.3,60.02988283766041,
,,,,cyan,blue,blue,cyan,left,,,,,0,41,41,157,,,,,,,,,left,0.9528515001293272,743.0878530000336,None,,,,,mf,002,2019_Oct_05_1438,StressSession,3.2.3,60.02988283766041,
,,,,white,red,white,red,right,,,,,0,42,42,91,,,,,,,,,right,1.0665241000242531,744.5902406000532,None,,,,,mf,002,2019_Oct_05_1438,StressSession,3.2.3,60.02988283766041,
,,,,red,brown,brown,red,left,,,,,0,43,43,117,,,,,,,,,left,1.3021189998835325,746.1864495000336,None,,,,,mf,002,2019_Oct_05_1438,StressSession,3.2.3,60.02988283766041,
,,,,yellow,green,green,yellow,left,,,,,0,44,44,167,,,,,,,,,left,1.465909600025043,748.0388772999868,None,,,,,mf,002,2019_Oct_05_1438,StressSession,3.2.3,60.02988283766041,
,,,,white,cyan,cyan,white,left,,,,,0,45,45,205,,,,,,,,,left,1.034458699868992,750.054364999989,None,,,,,mf,002,2019_Oct_05_1438,StressSession,3.2.3,60.02988283766041,
,,,,red,white,white,red,left,,,,,0,46,46,118,,,,,,,,,left,1.045475099934265,751.6352187001612,None,,,,,mf,002,2019_Oct_05_1438,StressSession,3.2.3,60.02988283766041,
,,,,black,cyan,cyan,black,left,,,,,0,47,47,214,,,,,,,,,left,0.8690821002237499,753.2356704000849,None,,,,,mf,002,2019_Oct_05_1438,StressSession,3.2.3,60.02988283766041,
,,,,cyan,magenta,magenta,cyan,left,,,,,0,48,48,159,,,,,,,,,left,1.172307400032878,754.6533727000933,None,,,,,mf,002,2019_Oct_05_1438,StressSession,3.2.3,60.02988283766041,
,,,,black,orange,orange,black,left,,,,,0,49,49,216,,,,,,,,,left,0.9962108999025077,756.3724311999977,None,,,,,mf,002,2019_Oct_05_1438,StressSession,3.2.3,60.02988283766041,
,,,,magenta,green,green,magenta,left,,,,,0,50,50,149,,,,,,,,,left,1.1398300998844206,757.9245406000409,None,,,,,mf,002,2019_Oct_05_1438,StressSession,3.2.3,60.02988283766041,
,,,,cyan,blue,cyan,blue,right,,,,,0,51,51,47,,,,,,,,,right,0.8814581001643091,759.6152145001106,None,,,,,mf,002,2019_Oct_05_1438,StressSession,3.2.3,60.02988283766041,
,,,,magenta,purple,magenta,purple,right,,,,,0,52,52,33,,,,,,,,,right,1.7037899000570178,761.0407708000857,None,,,,,mf,002,2019_Oct_05_1438,StressSession,3.2.3,60.02988283766041,
,,,,magenta,cyan,magenta,cyan,right,,,,,0,53,53,30,,,,,,,,,right,1.6528303001541644,763.2919718001503,None,,,,,mf,002,2019_Oct_05_1438,StressSession,3.2.3,60.02988283766041,
,,,,blue,black,black,blue,left,,,,,0,54,54,128,,,,,,,,,left,0.9113761000335217,765.4975173000712,None,,,,,mf,002,2019_Oct_05_1438,StressSession,3.2.3,60.02988283766041,
,,,,magenta,brown,brown,magenta,left,,,,,0,55,55,144,,,,,,,,,left,1.1735947001725435,766.9549451000057,None,,,,,mf,002,2019_Oct_05_1438,StressSession,3.2.3,60.02988283766041,
,,,,black,purple,black,purple,right,,,,,0,56,56,107,,,,,,,,,right,1.0054578001145273,768.6677753999829,None,,,,,mf,002,2019_Oct_05_1438,StressSession,3.2.3,60.02988283766041,
,,,,white,blue,white,blue,right,,,,,0,57,57,92,,,,,,,,,right,1.0545485999900848,770.2182674000505,None,,,,,mf,002,2019_Oct_05_1438,StressSession,3.2.3,60.02988283766041,
,,,,magenta,cyan,cyan,magenta,left,,,,,0,58,58,140,,,,,,,,,left,1.359379000030458,771.8171288999729,None,,,,,mf,002,2019_Oct_05_1438,StressSession,3.2.3,60.02988283766041,
,,,,black,green,black,green,right,,,,,0,59,59,102,,,,,,,,,right,1.1156712002120912,773.7169127000961,None,,,,,mf,002,2019_Oct_05_1438,StressSession,3.2.3,60.02988283766041,
,,,,orange,blue,blue,orange,left,,,,,0,60,60,175,,,,,,,,,left,0.8395857000723481,775.385213600006,None,,,,,mf,002,2019_Oct_05_1438,StressSession,3.2.3,60.02988283766041,
,,,,blue,brown,blue,brown,right,,,,,0,61,61,16,,,,,,,,,right,1.1856323999818414,776.7753083000425,None,,,,,mf,002,2019_Oct_05_1438,StressSession,3.2.3,60.02988283766041,
,,,,red,magenta,red,magenta,right,,,,,0,62,62,2,,,,,,,,,right,1.0648066999856383,778.511959400028,None,,,,,mf,002,2019_Oct_05_1438,StressSession,3.2.3,60.02988283766041,
,,,,yellow,cyan,cyan,yellow,left,,,,,0,63,63,169,,,,,,,,,left,1.0372094998601824,780.1320551000535,None,,,,,mf,002,2019_Oct_05_1438,StressSession,3.2.3,60.02988283766041,
,,,,white,yellow,yellow,white,left,,,,,0,64,64,206,,,,,,,,,right,0.8736310000531375,781.7119905999862,None,,,,,mf,002,2019_Oct_05_1438,StressSession,3.2.3,60.02988283766041,
,,,,cyan,brown,brown,cyan,left,,,,,0,65,65,153,,,,,,,,,left,2.8256002999842167,783.1271693999879,None,,,,,mf,002,2019_Oct_05_1438,StressSession,3.2.3,60.02988283766041,
,,,,red,black,black,red,left,,,,,0,66,66,119,,,,,,,,,left,1.2505633998662233,786.4780943000223,None,,,,,mf,002,2019_Oct_05_1438,StressSession,3.2.3,60.02988283766041,
,,,,white,brown,white,brown,right,,,,,0,67,67,99,,,,,,,,,right,1.361078699817881,788.263725799974,None,,,,,mf,002,2019_Oct_05_1438,StressSession,3.2.3,60.02988283766041,
,,,,orange,magenta,orange,magenta,right,,,,,0,68,68,67,,,,,,,,,right,1.1506320999469608,790.1861707000062,None,,,,,mf,002,2019_Oct_05_1438,StressSession,3.2.3,60.02988283766041,
,,,,red,orange,red,orange,right,,,,,0,69,69,5,,,,,,,,,right,1.004074600059539,791.8767707000952,None,,,,,mf,002,2019_Oct_05_1438,StressSession,3.2.3,60.02988283766041,
,,,,orange,cyan,orange,cyan,right,,,,,0,70,70,68,,,,,,,,,right,1.2686040999833494,793.42807610007,None,,,,,mf,002,2019_Oct_05_1438,StressSession,3.2.3,60.02988283766041,
,,,,orange,black,orange,black,right,,,,,0,71,71,63,,,,,,,,,right,0.8768458999693394,795.2277341000736,None,,,,,mf,002,2019_Oct_05_1438,StressSession,3.2.3,60.02988283766041,
,,,,purple,black,black,purple,left,,,,,0,72,72,182,,,,,,,,,left,1.6209384999237955,796.6610117000528,None,,,,,mf,002,2019_Oct_05_1438,StressSession,3.2.3,60.02988283766041,
,,,,purple,yellow,purple,yellow,right,,,,,0,73,73,78,,,,,,,,,right,0.8502976999152452,798.8225130001083,None,,,,,mf,002,2019_Oct_05_1438,StressSession,3.2.3,60.02988283766041,
,,,,orange,yellow,yellow,orange,left,,,,,0,74,74,179,,,,,,,,,left,1.1343545999843627,800.2267784001306,None,,,,,mf,002,2019_Oct_05_1438,StressSession,3.2.3,60.02988283766041,
,,,,cyan,orange,orange,cyan,left,,,,,0,75,75,151,,,,,,,,,left,1.033286000136286,801.9112756999675,None,,,,,mf,002,2019_Oct_05_1438,StressSession,3.2.3,60.02988283766041,
,,,,green,white,green,white,right,,,,,0,76,76,26,,,,,,,,,right,0.8961147000081837,803.4885336000007,None,,,,,mf,002,2019_Oct_05_1438,StressSession,3.2.3,60.02988283766041,
,,,,purple,orange,purple,orange,right,,,,,0,77,77,79,,,,,,,,,right,1.1759991999715567,804.928660399979,None,,,,,mf,002,2019_Oct_05_1438,StressSession,3.2.3,60.02988283766041,
,,,,blue,black,blue,black,right,,,,,0,78,78,18,,,,,,,,,right,1.0882475001271814,806.6567073001061,None,,,,,mf,002,2019_Oct_05_1438,StressSession,3.2.3,60.02988283766041,
,,,,magenta,white,white,magenta,left,,,,,0,79,79,145,,,,,,,,,left,1.0023300000466406,808.2944448001217,None,,,,,mf,002,2019_Oct_05_1438,StressSession,3.2.3,60.02988283766041,
,,,,green,yellow,green,yellow,right,,,,,0,80,80,22,,,,,,,,,right,0.9512128001078963,809.8412850000896,None,,,,,mf,002,2019_Oct_05_1438,StressSession,3.2.3,60.02988283766041,
,,,,yellow,white,yellow,white,right,,,,,0,81,81,53,,,,,,,,,right,1.6424436001107097,811.3419892000966,None,,,,,mf,002,2019_Oct_05_1438,StressSession,3.2.3,60.02988283766041,
,,,,cyan,purple,purple,cyan,left,,,,,0,82,82,152,,,,,,,,,left,1.05209739995189,813.5258735001553,None,,,,,mf,002,2019_Oct_05_1438,StressSession,3.2.3,60.02988283766041,
,,,,magenta,orange,magenta,orange,right,,,,,0,83,83,32,,,,,,,,,right,0.959547899896279,815.1290112000424,None,,,,,mf,002,2019_Oct_05_1438,StressSession,3.2.3,60.02988283766041,
,,,,red,green,green,red,left,,,,,0,84,84,111,,,,,,,,,left,0.9654693999327719,816.6194362000097,None,,,,,mf,002,2019_Oct_05_1438,StressSession,3.2.3,60.02988283766041,
,,,,white,black,black,white,left,,,,,0,85,85,200,,,,,,,,,left,0.9223285000771284,818.142152100103,None,,,,,mf,002,2019_Oct_05_1438,StressSession,3.2.3,60.02988283766041,
,,,,brown,white,white,brown,left,,,,,0,86,86,190,,,,,,,,,left,1.0196579999756068,819.6059044001158,None,,,,,mf,002,2019_Oct_05_1438,StressSession,3.2.3,60.02988283766041,
,,,,magenta,orange,orange,magenta,left,,,,,0,87,87,142,,,,,,,,,left,1.2893821001052856,821.1594070000574,None,,,,,mf,002,2019_Oct_05_1438,StressSession,3.2.3,60.02988283766041,
,,,,purple,blue,purple,blue,right,,,,,0,88,88,74,,,,,,,,,right,0.8666472998447716,823.0058536999859,None,,,,,mf,002,2019_Oct_05_1438,StressSession,3.2.3,60.02988283766041,
,,,,white,yellow,white,yellow,right,,,,,0,89,89,96,,,,,,,,,left,0.8629213999956846,824.4180006999522,None,,,,,mf,002,2019_Oct_05_1438,StressSession,3.2.3,60.02988283766041,
,,,,green,orange,orange,green,left,,,,,0,90,90,133,,,,,,,,,left,1.1413721998687834,825.8356616999954,None,,,,,mf,002,2019_Oct_05_1438,StressSession,3.2.3,60.02988283766041,
,,,,yellow,red,yellow,red,right,,,,,0,91,91,55,,,,,,,,,right,2.0319535001181066,827.5045570000075,None,,,,,mf,002,2019_Oct_05_1438,StressSession,3.2.3,60.02988283766041,
,,,,magenta,blue,magenta,blue,right,,,,,0,92,92,38,,,,,,,,,right,1.3269371001515538,830.0898796000984,None,,,,,mf,002,2019_Oct_05_1438,StressSession,3.2.3,60.02988283766041,
,,,,green,purple,purple,green,left,,,,,0,93,93,134,,,,,,,,,left,1.5054493001662195,831.9682297999971,None,,,,,mf,002,2019_Oct_05_1438,StressSession,3.2.3,60.02988283766041,
,,,,red,cyan,cyan,red,left,,,,,0,94,94,113,,,,,,,,,left,1.3299716000910848,834.0146095000673,None,,,,,mf,002,2019_Oct_05_1438,StressSession,3.2.3,60.02988283766041,
,,,,orange,green,green,orange,left,,,,,0,95,95,176,,,,,,,,,left,1.2920838000718504,835.9006000999361,None,,,,,mf,002,2019_Oct_05_1438,StressSession,3.2.3,60.02988283766041,
,,,,purple,red,purple,red,right,,,,,0,96,96,73,,,,,,,,,right,1.595782799879089,837.7490674001165,None,,,,,mf,002,2019_Oct_05_1438,StressSession,3.2.3,60.02988283766041,
,,,,purple,brown,purple,brown,right,,,,,0,97,97,70,,,,,,,,,right,1.211001600138843,839.8857659001369,None,,,,,mf,002,2019_Oct_05_1438,StressSession,3.2.3,60.02988283766041,
,,,,green,white,white,green,left,,,,,0,98,98,136,,,,,,,,,left,1.0558221999090165,841.6496393000707,None,,,,,mf,002,2019_Oct_05_1438,StressSession,3.2.3,60.02988283766041,
,,,,white,red,red,white,left,,,,,0,99,99,201,,,,,,,,,left,1.3791702999733388,843.2455601000693,None,,,,,mf,002,2019_Oct_05_1438,StressSession,3.2.3,60.02988283766041,
,,,,yellow,purple,yellow,purple,right,,,,,0,100,100,51,,,,,,,,,right,1.0159290998708457,845.1688326001167,None,,,,,mf,002,2019_Oct_05_1438,StressSession,3.2.3,60.02988283766041,
,,,,red,yellow,red,yellow,right,,,,,0,101,101,4,,,,,,,,,right,1.0877868998795748,846.7287524000276,None,,,,,mf,002,2019_Oct_05_1438,StressSession,3.2.3,60.02988283766041,
,,,,red,cyan,red,cyan,right,,,,,0,102,102,3,,,,,,,,,right,0.9724989999085665,848.3399716001004,None,,,,,mf,002,2019_Oct_05_1438,StressSession,3.2.3,60.02988283766041,
,,,,blue,orange,blue,orange,right,,,,,0,103,103,14,,,,,,,,,right,1.192158400081098,849.9043475999497,None,,,,,mf,002,2019_Oct_05_1438,StressSession,3.2.3,60.02988283766041,
,,,,purple,magenta,purple,magenta,right,,,,,0,104,104,76,,,,,,,,,right,1.0848491999786347,851.6520622000098,None,,,,,mf,002,2019_Oct_05_1438,StressSession,3.2.3,60.02988283766041,
,,,,red,blue,blue,red,left,,,,,0,105,105,110,,,,,,,,,left,1.1903643000405282,853.2743365999777,None,,,,,mf,002,2019_Oct_05_1438,StressSession,3.2.3,60.02988283766041,
,,,,blue,magenta,magenta,blue,left,,,,,0,106,106,121,,,,,,,,,left,1.5770509999711066,855.015639099991,None,,,,,mf,002,2019_Oct_05_1438,StressSession,3.2.3,60.02988283766041,
,,,,purple,cyan,cyan,purple,left,,,,,0,107,107,187,,,,,,,,,left,1.0373741001822054,857.147982200142,None,,,,,mf,002,2019_Oct_05_1438,StressSession,3.2.3,60.02988283766041,
,,,,purple,brown,brown,purple,left,,,,,0,108,108,180,,,,,,,,,left,1.253367899917066,858.7155164000578,None,,,,,mf,002,2019_Oct_05_1438,StressSession,3.2.3,60.02988283766041,
,,,,cyan,white,white,cyan,left,,,,,0,109,109,154,,,,,,,,,left,0.761061399942264,860.5115161000285,None,,,,,mf,002,2019_Oct_05_1438,StressSession,3.2.3,60.02988283766041,
,,,,brown,magenta,magenta,brown,left,,,,,0,110,110,195,,,,,,,,,right,1.0891199999023229,861.8317001000978,None,,,,,mf,002,2019_Oct_05_1438,StressSession,3.2.3,60.02988283766041,
,,,,red,yellow,yellow,red,left,,,,,0,111,111,114,,,,,,,,,left,1.44686370017007,863.4740410000086,None,,,,,mf,002,2019_Oct_05_1438,StressSession,3.2.3,60.02988283766041,
,,,,magenta,blue,blue,magenta,left,,,,,0,112,112,148,,,,,,,,,left,1.2022608001716435,865.4794481999706,None,,,,,mf,002,2019_Oct_05_1438,StressSession,3.2.3,60.02988283766041,
,,,,magenta,yellow,magenta,yellow,right,,,,,0,113,113,31,,,,,,,,,right,0.88235990004614,867.2223147000186,None,,,,,mf,002,2019_Oct_05_1438,StressSession,3.2.3,60.02988283766041,
,,,,green,cyan,cyan,green,left,,,,,0,114,114,131,,,,,,,,,left,1.4006028999574482,868.6560204001144,None,,,,,mf,002,2019_Oct_05_1438,StressSession,3.2.3,60.02988283766041,
,,,,brown,orange,brown,orange,right,,,,,0,115,115,88,,,,,,,,,right,0.8034967000130564,870.6129432001617,None,,,,,mf,002,2019_Oct_05_1438,StressSession,3.2.3,60.02988283766041,
,,,,white,cyan,white,cyan,right,,,,,0,116,116,95,,,,,,,,,right,1.402420099824667,871.9422613000497,None,,,,,mf,002,2019_Oct_05_1438,StressSession,3.2.3,60.02988283766041,
,,,,red,blue,red,blue,right,,,,,0,117,117,0,,,,,,,,,right,0.9702628999948502,873.886255200021,None,,,,,mf,002,2019_Oct_05_1438,StressSession,3.2.3,60.02988283766041,
,,,,brown,purple,brown,purple,right,,,,,0,118,118,89,,,,,,,,,right,0.822348800022155,875.3944498000201,None,,,,,mf,002,2019_Oct_05_1438,StressSession,3.2.3,60.02988283766041,
,,,,red,purple,red,purple,right,,,,,0,119,119,6,,,,,,,,,right,1.0067134001292288,876.7545839000959,None,,,,,mf,002,2019_Oct_05_1438,StressSession,3.2.3,60.02988283766041,
,,,,magenta,green,magenta,green,right,,,,,0,120,120,39,,,,,,,,,right,0.8988024999853224,878.309928700095,None,,,,,mf,002,2019_Oct_05_1438,StressSession,3.2.3,60.02988283766041,
,,,,brown,cyan,cyan,brown,left,,,,,0,121,121,196,,,,,,,,,left,1.37971520004794,879.7570065001491,None,,,,,mf,002,2019_Oct_05_1438,StressSession,3.2.3,60.02988283766041,
,,,,green,magenta,green,magenta,right,,,,,0,122,122,20,,,,,,,,,right,1.3200382001232356,881.6884012001101,None,,,,,mf,002,2019_Oct_05_1438,StressSession,3.2.3,60.02988283766041,
,,,,brown,black,black,brown,left,,,,,0,123,123,191,,,,,,,,,left,1.035967799834907,883.5420744000003,None,,,,,mf,002,2019_Oct_05_1438,StressSession,3.2.3,60.02988283766041,
,,,,orange,brown,brown,orange,left,,,,,0,124,124,171,,,,,,,,,left,3.1147642999421805,885.1097850000951,None,,,,,mf,002,2019_Oct_05_1438,StressSession,3.2.3,60.02988283766041,
,,,,orange,green,orange,green,right,,,,,0,125,125,66,,,,,,,,,right,1.4151924001052976,888.7619851001073,None,,,,,mf,002,2019_Oct_05_1438,StressSession,3.2.3,60.02988283766041,
,,,,blue,white,white,blue,left,,,,,0,126,126,127,,,,,,,,,left,1.1116069999989122,890.7048416000325,None,,,,,mf,002,2019_Oct_05_1438,StressSession,3.2.3,60.02988283766041,
,,,,red,magenta,magenta,red,left,,,,,0,127,127,112,,,,,,,,,left,0.8224068998824805,892.3709376000334,None,,,,,mf,002,2019_Oct_05_1438,StressSession,3.2.3,60.02988283766041,
,,,,yellow,blue,yellow,blue,right,,,,,0,128,128,56,,,,,,,,,right,0.7668170998804271,893.7379487999715,None,,,,,mf,002,2019_Oct_05_1438,StressSession,3.2.3,60.02988283766041,
,,,,purple,orange,orange,purple,left,,,,,0,129,129,189,,,,,,,,,left,1.0315748997963965,895.0570819999557,None,,,,,mf,002,2019_Oct_05_1438,StressSession,3.2.3,60.02988283766041,
,,,,purple,magenta,magenta,purple,left,,,,,0,130,130,186,,,,,,,,,left,0.947803599992767,896.6129318999592,None,,,,,mf,002,2019_Oct_05_1438,StressSession,3.2.3,60.02988283766041,
,,,,orange,cyan,cyan,orange,left,,,,,0,131,131,178,,,,,,,,,left,1.4966875999234617,898.0879617000464,None,,,,,mf,002,2019_Oct_05_1438,StressSession,3.2.3,60.02988283766041,
,,,,yellow,cyan,yellow,cyan,right,,,,,0,132,132,59,,,,,,,,,right,0.7754836999811232,900.1450722999871,None,,,,,mf,002,2019_Oct_05_1438,StressSession,3.2.3,60.02988283766041,
,,,,orange,black,black,orange,left,,,,,0,133,133,173,,,,,,,,,left,0.7537954999133945,901.4553203000687,None,,,,,mf,002,2019_Oct_05_1438,StressSession,3.2.3,60.02988283766041,
,,,,green,magenta,magenta,green,left,,,,,0,134,134,130,,,,,,,,,left,0.8320676998700947,902.736475400161,None,,,,,mf,002,2019_Oct_05_1438,StressSession,3.2.3,60.02988283766041,
,,,,green,orange,green,orange,right,,,,,0,135,135,23,,,,,,,,,right,1.0356871001422405,904.1172029001173,None,,,,,mf,002,2019_Oct_05_1438,StressSession,3.2.3,60.02988283766041,
,,,,black,magenta,magenta,black,left,,,,,0,136,136,213,,,,,,,,,left,0.7011156999506056,905.6996025000699,None,,,,,mf,002,2019_Oct_05_1438,StressSession,3.2.3,60.02988283766041,
,,,,yellow,orange,yellow,orange,right,,,,,0,137,137,50,,,,,,,,,right,0.8022110001184046,906.9503001000267,None,,,,,mf,002,2019_Oct_05_1438,StressSession,3.2.3,60.02988283766041,
,,,,magenta,red,magenta,red,right,,,,,0,138,138,37,,,,,,,,,right,0.7507722000591457,908.3058283000719,None,,,,,mf,002,2019_Oct_05_1438,StressSession,3.2.3,60.02988283766041,
,,,,purple,white,white,purple,left,,,,,0,139,139,181,,,,,,,,,left,0.7049388000741601,909.6005237000063,None,,,,,mf,002,2019_Oct_05_1438,StressSession,3.2.3,60.02988283766041,
,,,,cyan,red,red,cyan,left,,,,,0,140,140,156,,,,,,,,,left,0.6602850998751819,910.8451865001116,None,,,,,mf,002,2019_Oct_05_1438,StressSession,3.2.3,60.02988283766041,
,,,,green,purple,green,purple,right,,,,,0,141,141,24,,,,,,,,,left,0.7540663001127541,912.0467167999595,None,,,,,mf,002,2019_Oct_05_1438,StressSession,3.2.3,60.02988283766041,
,,,,blue,cyan,blue,cyan,right,,,,,0,142,142,12,,,,,,,,,right,0.9839069999288768,913.3445001000073,None,,,,,mf,002,2019_Oct_05_1438,StressSession,3.2.3,60.02988283766041,
,,,,red,brown,red,brown,right,,,,,0,143,143,7,,,,,,,,,right,0.9137269000057131,914.8630566999782,None,,,,,mf,002,2019_Oct_05_1438,StressSession,3.2.3,60.02988283766041,
,,,,brown,white,brown,white,right,,,,,0,144,144,80,,,,,,,,,right,0.7086372000630945,916.3161576001439,None,,,,,mf,002,2019_Oct_05_1438,StressSession,3.2.3,60.02988283766041,
,,,,green,red,green,red,right,,,,,0,145,145,28,,,,,,,,,right,0.7742324001155794,917.5627814999316,None,,,,,mf,002,2019_Oct_05_1438,StressSession,3.2.3,60.02988283766041,
,,,,magenta,black,magenta,black,right,,,,,0,146,146,36,,,,,,,,,right,0.9552005000878125,918.8696975000203,None,,,,,mf,002,2019_Oct_05_1438,StressSession,3.2.3,60.02988283766041,
,,,,yellow,brown,brown,yellow,left,,,,,0,147,147,162,,,,,,,,,left,0.9336988001596183,920.3870792000089,None,,,,,mf,002,2019_Oct_05_1438,StressSession,3.2.3,60.02988283766041,
,,,,yellow,black,black,yellow,left,,,,,0,148,148,164,,,,,,,,,left,1.0794570001307875,921.8490536001045,None,,,,,mf,002,2019_Oct_05_1438,StressSession,3.2.3,60.02988283766041,
,,,,blue,orange,orange,blue,left,,,,,0,149,149,124,,,,,,,,,left,0.7642704998143017,923.4765052001458,None,,,,,mf,002,2019_Oct_05_1438,StressSession,3.2.3,60.02988283766041,
,,,,cyan,green,cyan,green,right,,,,,0,150,150,48,,,,,,,,,right,1.0835179998539388,924.7810866001528,None,,,,,mf,002,2019_Oct_05_1438,StressSession,3.2.3,60.02988283766041,
,,,,brown,blue,brown,blue,right,,,,,0,151,151,83,,,,,,,,,right,0.7106859998311847,926.4100675999653,None,,,,,mf,002,2019_Oct_05_1438,StressSession,3.2.3,60.02988283766041,
,,,,magenta,white,magenta,white,right,,,,,0,152,152,35,,,,,,,,,right,0.8536375002004206,927.6509134999942,None,,,,,mf,002,2019_Oct_05_1438,StressSession,3.2.3,60.02988283766041,
,,,,cyan,black,cyan,black,right,,,,,0,153,153,45,,,,,,,,,right,1.0366614998783916,929.0600912999362,None,,,,,mf,002,2019_Oct_05_1438,StressSession,3.2.3,60.02988283766041,
,,,,blue,brown,brown,blue,left,,,,,0,154,154,126,,,,,,,,,left,0.7798645999282598,930.6449921000749,None,,,,,mf,002,2019_Oct_05_1438,StressSession,3.2.3,60.02988283766041,
,,,,blue,green,green,blue,left,,,,,0,155,155,120,,,,,,,,,left,1.13131930003874,931.9652305999771,None,,,,,mf,002,2019_Oct_05_1438,StressSession,3.2.3,60.02988283766041,
,,,,orange,brown,orange,brown,right,,,,,0,156,156,61,,,,,,,,,right,0.9795151001308113,933.6451018999796,None,,,,,mf,002,2019_Oct_05_1438,StressSession,3.2.3,60.02988283766041,
,,,,black,cyan,black,cyan,right,,,,,0,157,157,104,,,,,,,,,right,0.74525439995341,935.1754241001327,None,,,,,mf,002,2019_Oct_05_1438,StressSession,3.2.3,60.02988283766041,
,,,,green,red,red,green,left,,,,,0,158,158,138,,,,,,,,,left,0.6139184001367539,936.4751456000376,None,,,,,mf,002,2019_Oct_05_1438,StressSession,3.2.3,60.02988283766041,
,,,,green,brown,green,brown,right,,,,,0,159,159,25,,,,,,,,,right,0.8248451000545174,937.6240257001482,None,,,,,mf,002,2019_Oct_05_1438,StressSession,3.2.3,60.02988283766041,
,,,,orange,magenta,magenta,orange,left,,,,,0,160,160,177,,,,,,,,,left,0.8041000999510288,938.9966162999626,None,,,,,mf,002,2019_Oct_05_1438,StressSession,3.2.3,60.02988283766041,
,,,,black,blue,black,blue,right,,,,,0,161,161,101,,,,,,,,,right,0.947141099954024,940.3259124001488,None,,,,,mf,002,2019_Oct_05_1438,StressSession,3.2.3,60.02988283766041,
,,,,blue,cyan,cyan,blue,left,,,,,0,162,162,122,,,,,,,,,left,1.00430339993909,941.8043881999329,None,,,,,mf,002,2019_Oct_05_1438,StressSession,3.2.3,60.02988283766041,
,,,,white,orange,white,orange,right,,,,,0,163,163,97,,,,,,,,,right,0.9051292999647558,943.3596747999545,None,,,,,mf,002,2019_Oct_05_1438,StressSession,3.2.3,60.02988283766041,
,,,,blue,yellow,yellow,blue,left,,,,,0,164,164,123,,,,,,,,,left,0.9020561000797898,944.7954683999997,None,,,,,mf,002,2019_Oct_05_1438,StressSession,3.2.3,60.02988283766041,
,,,,white,magenta,white,magenta,right,,,,,0,165,165,94,,,,,,,,,right,0.9825993999838829,946.2420655000024,None,,,,,mf,002,2019_Oct_05_1438,StressSession,3.2.3,60.02988283766041,
,,,,blue,purple,blue,purple,right,,,,,0,166,166,15,,,,,,,,,right,1.3943959001917392,947.7741386000998,None,,,,,mf,002,2019_Oct_05_1438,StressSession,3.2.3,60.02988283766041,
,,,,blue,purple,purple,blue,left,,,,,0,167,167,125,,,,,,,,,left,0.8032881000544876,949.7173280001152,None,,,,,mf,002,2019_Oct_05_1438,StressSession,3.2.3,60.02988283766041,
,,,,magenta,black,black,magenta,left,,,,,0,168,168,146,,,,,,,,,left,0.8750187000259757,951.0780601999722,None,,,,,mf,002,2019_Oct_05_1438,StressSession,3.2.3,60.02988283766041,
,,,,blue,yellow,blue,yellow,right,,,,,0,169,169,13,,,,,,,,,right,0.6968481000512838,952.5040138999466,None,,,,,mf,002,2019_Oct_05_1438,StressSession,3.2.3,60.02988283766041,
,,,,cyan,brown,cyan,brown,right,,,,,0,170,170,43,,,,,,,,,right,0.7718239999376237,953.7574964000378,None,,,,,mf,002,2019_Oct_05_1438,StressSession,3.2.3,60.02988283766041,
,,,,green,black,green,black,right,,,,,0,171,171,27,,,,,,,,,right,1.1191278998740017,955.0897758000065,None,,,,,mf,002,2019_Oct_05_1438,StressSession,3.2.3,60.02988283766041,
,,,,orange,red,red,orange,left,,,,,0,172,172,174,,,,,,,,,left,0.8975244001485407,956.7593481999356,None,,,,,mf,002,2019_Oct_05_1438,StressSession,3.2.3,60.02988283766041,
,,,,black,red,red,black,left,,,,,0,173,173,210,,,,,,,,,right,1.6560953001026064,958.1845188001171,None,,,,,mf,002,2019_Oct_05_1438,StressSession,3.2.3,60.02988283766041,
,,,,cyan,magenta,cyan,magenta,right,,,,,0,174,174,49,,,,,,,,,left,0.6889692998956889,960.3758642000612,None,,,,,mf,002,2019_Oct_05_1438,StressSession,3.2.3,60.02988283766041,
,,,,purple,black,purple,black,right,,,,,0,175,175,72,,,,,,,,,right,1.498117599869147,961.6225509999786,None,,,,,mf,002,2019_Oct_05_1438,StressSession,3.2.3,60.02988283766041,
,,,,yellow,purple,purple,yellow,left,,,,,0,176,176,161,,,,,,,,,left,1.269703899975866,963.6672023001593,None,,,,,mf,002,2019_Oct_05_1438,StressSession,3.2.3,60.02988283766041,
,,,,black,yellow,black,yellow,right,,,,,0,177,177,105,,,,,,,,,right,1.209572299849242,965.4789861999452,None,,,,,mf,002,2019_Oct_05_1438,StressSession,3.2.3,60.02988283766041,
,,,,black,blue,blue,black,left,,,,,0,178,178,211,,,,,,,,,left,1.0438248000573367,967.2294346999843,None,,,,,mf,002,2019_Oct_05_1438,StressSession,3.2.3,60.02988283766041,
,,,,white,purple,white,purple,right,,,,,0,179,179,98,,,,,,,,,left,1.278850399889052,968.8341928999871,None,,,,,mf,002,2019_Oct_05_1438,StressSession,3.2.3,60.02988283766041,
,,,,green,black,black,green,left,,,,,0,180,180,137,,,,,,,,,left,1.3891813000664115,970.6518475001212,None,,,,,mf,002,2019_Oct_05_1438,StressSession,3.2.3,60.02988283766041,
,,,,white,purple,purple,white,left,,,,,0,181,181,208,,,,,,,,,left,1.1700559998862445,972.5746239,None,,,,,mf,002,2019_Oct_05_1438,StressSession,3.2.3,60.02988283766041,
,,,,red,green,red,green,right,,,,,0,182,182,1,,,,,,,,,right,0.9790121999103576,974.29437769996,None,,,,,mf,002,2019_Oct_05_1438,StressSession,3.2.3,60.02988283766041,
,,,,white,magenta,magenta,white,left,,,,,0,183,183,204,,,,,,,,,left,1.189124499913305,975.8194584001321,None,,,,,mf,002,2019_Oct_05_1438,StressSession,3.2.3,60.02988283766041,
,,,,orange,white,white,orange,left,,,,,0,184,184,172,,,,,,,,,left,1.7111321999691427,977.5377359001432,None,,,,,mf,002,2019_Oct_05_1438,StressSession,3.2.3,60.02988283766041,
,,,,white,black,white,black,right,,,,,0,185,185,90,,,,,,,,,right,0.9830242001917213,979.7939492000733,None,,,,,mf,002,2019_Oct_05_1438,StressSession,3.2.3,60.02988283766041,
,,,,black,green,green,black,left,,,,,0,186,186,212,,,,,,,,,left,1.170672700041905,981.3259300999343,None,,,,,mf,002,2019_Oct_05_1438,StressSession,3.2.3,60.02988283766041,
,,,,black,brown,black,brown,right,,,,,0,187,187,108,,,,,,,,,right,3.1224331001285464,983.0310986000113,None,,,,,mf,002,2019_Oct_05_1438,StressSession,3.2.3,60.02988283766041,
,,,,cyan,black,black,cyan,left,,,,,0,188,188,155,,,,,,,,,left,1.586854499997571,986.6778800999746,None,,,,,mf,002,2019_Oct_05_1438,StressSession,3.2.3,60.02988283766041,
,,,,brown,black,brown,black,right,,,,,0,189,189,81,,,,,,,,,left,1.4248465998098254,988.8001705999486,None,,,,,mf,002,2019_Oct_05_1438,StressSession,3.2.3,60.02988283766041,
,,,,black,purple,purple,black,left,,,,,0,190,190,217,,,,,,,,,left,1.4012947999872267,990.7752686000895,None,,,,,mf,002,2019_Oct_05_1438,StressSession,3.2.3,60.02988283766041,
,,,,brown,red,brown,red,right,,,,,0,191,191,82,,,,,,,,,right,1.2328552000690252,992.7276779999956,None,,,,,mf,002,2019_Oct_05_1438,StressSession,3.2.3,60.02988283766041,
,,,,purple,green,purple,green,right,,,,,0,192,192,75,,,,,,,,,right,1.1335585999768227,994.5149590999354,None,,,,,mf,002,2019_Oct_05_1438,StressSession,3.2.3,60.02988283766041,
,,,,green,blue,green,blue,right,,,,,0,193,193,29,,,,,,,,,right,1.083411999978125,996.1973449001089,None,,,,,mf,002,2019_Oct_05_1438,StressSession,3.2.3,60.02988283766041,
,,,,cyan,purple,cyan,purple,right,,,,,0,194,194,42,,,,,,,,,right,1.107536599971354,997.8292024000548,None,,,,,mf,002,2019_Oct_05_1438,StressSession,3.2.3,60.02988283766041,
,,,,purple,white,purple,white,right,,,,,0,195,195,71,,,,,,,,,right,1.1599636999890208,999.480526600033,None,,,,,mf,002,2019_Oct_05_1438,StressSession,3.2.3,60.02988283766041,
,,,,white,green,green,white,left,,,,,0,196,196,203,,,,,,,,,left,0.993096899939701,1001.1759881000035,None,,,,,mf,002,2019_Oct_05_1438,StressSession,3.2.3,60.02988283766041,
,,,,blue,green,blue,green,right,,,,,0,197,197,10,,,,,,,,,right,1.2707573000807315,1002.721801900072,None,,,,,mf,002,2019_Oct_05_1438,StressSession,3.2.3,60.02988283766041,
,,,,yellow,black,yellow,black,right,,,,,0,198,198,54,,,,,,,,,right,0.9878861999604851,1004.5488579000812,None,,,,,mf,002,2019_Oct_05_1438,StressSession,3.2.3,60.02988283766041,
,,,,cyan,orange,cyan,orange,right,,,,,0,199,199,41,,,,,,,,,right,0.9050910000223666,1006.079439500114,None,,,,,mf,002,2019_Oct_05_1438,StressSession,3.2.3,60.02988283766041,
,,,,magenta,red,red,magenta,left,,,,,0,200,200,147,,,,,,,,,left,1.0731093001086265,1007.5278904000297,None,,,,,mf,002,2019_Oct_05_1438,StressSession,3.2.3,60.02988283766041,
,,,,white,brown,brown,white,left,,,,,0,201,201,209,,,,,,,,,left,1.1783080000896007,1009.1426067000721,None,,,,,mf,002,2019_Oct_05_1438,StressSession,3.2.3,60.02988283766041,
,,,,brown,green,brown,green,right,,,,,0,202,202,84,,,,,,,,,right,0.9521456998772919,1010.8567534999456,None,,,,,mf,002,2019_Oct_05_1438,StressSession,3.2.3,60.02988283766041,
,,,,brown,blue,blue,brown,left,,,,,0,203,203,193,,,,,,,,,left,1.3028770999517292,1012.3380222001579,None,,,,,mf,002,2019_Oct_05_1438,StressSession,3.2.3,60.02988283766041,
,,,,blue,magenta,blue,magenta,right,,,,,0,204,204,11,,,,,,,,,right,1.2450714998412877,1014.1876020999625,None,,,,,mf,002,2019_Oct_05_1438,StressSession,3.2.3,60.02988283766041,
,,,,blue,red,red,blue,left,,,,,0,205,205,129,,,,,,,,,left,1.4083155998960137,1015.9525427999906,None,,,,,mf,002,2019_Oct_05_1438,StressSession,3.2.3,60.02988283766041,
,,,,black,brown,brown,black,left,,,,,0,206,206,218,,,,,,,,,left,1.2035336000844836,1017.9095956000965,None,,,,,mf,002,2019_Oct_05_1438,StressSession,3.2.3,60.02988283766041,
,,,,cyan,white,cyan,white,right,,,,,0,207,207,44,,,,,,,,,right,1.2135754998307675,1019.6591424001381,None,,,,,mf,002,2019_Oct_05_1438,StressSession,3.2.3,60.02988283766041,
,,,,cyan,yellow,yellow,cyan,left,,,,,0,208,208,150,,,,,,,,,left,1.3927980000153184,1021.4158187999856,None,,,,,mf,002,2019_Oct_05_1438,StressSession,3.2.3,60.02988283766041,
,,,,green,brown,brown,green,left,,,,,0,209,209,135,,,,,,,,,left,1.9848482001107186,1023.35187090002,None,,,,,mf,002,2019_Oct_05_1438,StressSession,3.2.3,60.02988283766041,
,,,,black,orange,black,orange,right,,,,,0,210,210,106,,,,,,,,,right,1.000109599903226,1025.8888465999626,None,,,,,mf,002,2019_Oct_05_1438,StressSession,3.2.3,60.02988283766041,
,,,,red,white,red,white,right,,,,,0,211,211,8,,,,,,,,,left,0.9797614999115467,1027.4208397001494,None,,,,,mf,002,2019_Oct_05_1438,StressSession,3.2.3,60.02988283766041,
,,,,magenta,yellow,yellow,magenta,left,,,,,0,212,212,141,,,,,,,,,left,1.1775032998993993,1028.9433291000314,None,,,,,mf,002,2019_Oct_05_1438,StressSession,3.2.3,60.02988283766041,
,,,,blue,red,blue,red,right,,,,,0,213,213,19,,,,,,,,,right,1.3180650998838246,1030.6668638000265,None,,,,,mf,002,2019_Oct_05_1438,StressSession,3.2.3,60.02988283766041,
,,,,brown,red,red,brown,left,,,,,0,214,214,192,,,,,,,,,left,1.2655054000206292,1032.5274714999832,None,,,,,mf,002,2019_Oct_05_1438,StressSession,3.2.3,60.02988283766041,
,,,,white,orange,orange,white,left,,,,,0,215,215,207,,,,,,,,,left,0.963951300131157,1034.340821400052,None,,,,,mf,002,2019_Oct_05_1438,StressSession,3.2.3,60.02988283766041,
,,,,white,green,white,green,right,,,,,0,216,216,93,,,,,,,,,right,1.5853478000499308,1035.8474354001228,None,,,,,mf,002,2019_Oct_05_1438,StressSession,3.2.3,60.02988283766041,
,,,,magenta,brown,magenta,brown,right,,,,,0,217,217,34,,,,,,,,,left,1.2843543000053614,1037.9733872001525,None,,,,,mf,002,2019_Oct_05_1438,StressSession,3.2.3,60.02988283766041,
,,,,brown,yellow,yellow,brown,left,,,,,0,218,218,197,,,,,,,,,left,1.3538242999929935,1039.7990178000182,None,,,,,mf,002,2019_Oct_05_1438,StressSession,3.2.3,60.02988283766041,
,,,,magenta,purple,purple,magenta,left,,,,,0,219,219,143,,,,,,,,,right,1.3663124998565763,1041.6911470000632,None,,,,,mf,002,2019_Oct_05_1438,StressSession,3.2.3,60.02988283766041,
,,,,,,,,,,,,,,,,,,,,3,23.467,,,,,,,,2019-10-05_14:55:38,,,,mf,002,2019_Oct_05_1438,StressSession,3.2.3,60.02988283766041,
,,,,,,,,,,,,,,,,,,,,,,5,30.572,,,,,,,,,,mf,002,2019_Oct_05_1438,StressSession,3.2.3,60.02988283766041,
,,,,,,,,,,,,,,,,,,,,2,10.417,,,,,,,,,2019-10-05_14:57:04,2019-10-05_15:02:04,,mf,002,2019_Oct_05_1438,StressSession,3.2.3,60.02988283766041,
,,,,,,,,,,,,,,,,,,,,,,,,,,,,,,,,2019-10-05_15:02:17,,,,,,,
