Tick,Color,Tone,TimeDur,WordItem,WordColor,AnsLeft,AnsRight,AnsCorr,tick.thisRepN,tick.thisTrialN,tick.thisN,tick.thisIndex,stroop_trials.thisRepN,stroop_trials.thisTrialN,stroop_trials.thisN,stroop_trials.thisIndex,start_session_two,start_stress_one,end_stress_one,rating_evaluation_one.response,rating_evaluation_one.rt,rating_evaluation_two.response,rating_evaluation_two.rt,start_stress_two,key_resp_part_two_meas.keys,key_resp_part_two_meas.rt,key_resp_part_two_meas.started,key_resp_part_two_meas.stopped,end_stress_two,start_cooldown_measurement,end_cooldown_measurement,end_session_two,participant,session,date,expName,psychopyVersion,frameRate,
1,green,440,1.0,,,,,,0,0,0,0,,,,,2019-10-05_16:44:01,2019-10-05_16:45:14,,,,,,,,,,,,,,,rs,002,2019_Oct_05_1644,StressSession,3.2.3,60.00078000210939,
2,green,440,1.0,,,,,,0,1,1,1,,,,,,,,,,,,,,,,,,,,,rs,002,2019_Oct_05_1644,StressSession,3.2.3,60.00078000210939,
3,green,440,1.0,,,,,,0,2,2,2,,,,,,,,,,,,,,,,,,,,,rs,002,2019_Oct_05_1644,StressSession,3.2.3,60.00078000210939,
4,green,440,1.0,,,,,,0,3,3,3,,,,,,,,,,,,,,,,,,,,,rs,002,2019_Oct_05_1644,StressSession,3.2.3,60.00078000210939,
5,green,440,1.0,,,,,,0,4,4,4,,,,,,,,,,,,,,,,,,,,,rs,002,2019_Oct_05_1644,StressSession,3.2.3,60.00078000210939,
6,green,440,1.0,,,,,,0,5,5,5,,,,,,,,,,,,,,,,,,,,,rs,002,2019_Oct_05_1644,StressSession,3.2.3,60.00078000210939,
7,green,440,1.0,,,,,,0,6,6,6,,,,,,,,,,,,,,,,,,,,,rs,002,2019_Oct_05_1644,StressSession,3.2.3,60.00078000210939,
8,green,440,1.0,,,,,,0,7,7,7,,,,,,,,,,,,,,,,,,,,,rs,002,2019_Oct_05_1644,StressSession,3.2.3,60.00078000210939,
9,green,440,1.0,,,,,,0,8,8,8,,,,,,,,,,,,,,,,,,,,,rs,002,2019_Oct_05_1644,StressSession,3.2.3,60.00078000210939,
10,green,440,1.0,,,,,,0,9,9,9,,,,,,,,,,,,,,,,,,,,,rs,002,2019_Oct_05_1644,StressSession,3.2.3,60.00078000210939,
11,green,440,1.0,,,,,,0,10,10,10,,,,,,,,,,,,,,,,,,,,,rs,002,2019_Oct_05_1644,StressSession,3.2.3,60.00078000210939,
12,green,440,1.0,,,,,,0,11,11,11,,,,,,,,,,,,,,,,,,,,,rs,002,2019_Oct_05_1644,StressSession,3.2.3,60.00078000210939,
13,green,440,1.0,,,,,,0,12,12,12,,,,,,,,,,,,,,,,,,,,,rs,002,2019_Oct_05_1644,StressSession,3.2.3,60.00078000210939,
14,green,440,1.0,,,,,,0,13,13,13,,,,,,,,,,,,,,,,,,,,,rs,002,2019_Oct_05_1644,StressSession,3.2.3,60.00078000210939,
15,green,440,1.0,,,,,,0,14,14,14,,,,,,,,,,,,,,,,,,,,,rs,002,2019_Oct_05_1644,StressSession,3.2.3,60.00078000210939,
16,green,440,1.0,,,,,,0,15,15,15,,,,,,,,,,,,,,,,,,,,,rs,002,2019_Oct_05_1644,StressSession,3.2.3,60.00078000210939,
17,green,440,1.0,,,,,,0,16,16,16,,,,,,,,,,,,,,,,,,,,,rs,002,2019_Oct_05_1644,StressSession,3.2.3,60.00078000210939,
18,green,440,1.0,,,,,,0,17,17,17,,,,,,,,,,,,,,,,,,,,,rs,002,2019_Oct_05_1644,StressSession,3.2.3,60.00078000210939,
19,green,440,1.0,,,,,,0,18,18,18,,,,,,,,,,,,,,,,,,,,,rs,002,2019_Oct_05_1644,StressSession,3.2.3,60.00078000210939,
20,green,440,1.0,,,,,,0,19,19,19,,,,,,,,,,,,,,,,,,,,,rs,002,2019_Oct_05_1644,StressSession,3.2.3,60.00078000210939,
21,green,440,1.0,,,,,,0,20,20,20,,,,,,,,,,,,,,,,,,,,,rs,002,2019_Oct_05_1644,StressSession,3.2.3,60.00078000210939,
22,green,440,1.0,,,,,,0,21,21,21,,,,,,,,,,,,,,,,,,,,,rs,002,2019_Oct_05_1644,StressSession,3.2.3,60.00078000210939,
23,green,440,1.0,,,,,,0,22,22,22,,,,,,,,,,,,,,,,,,,,,rs,002,2019_Oct_05_1644,StressSession,3.2.3,60.00078000210939,
24,green,440,1.0,,,,,,0,23,23,23,,,,,,,,,,,,,,,,,,,,,rs,002,2019_Oct_05_1644,StressSession,3.2.3,60.00078000210939,
25,green,440,1.0,,,,,,0,24,24,24,,,,,,,,,,,,,,,,,,,,,rs,002,2019_Oct_05_1644,StressSession,3.2.3,60.00078000210939,
26,green,440,1.0,,,,,,0,25,25,25,,,,,,,,,,,,,,,,,,,,,rs,002,2019_Oct_05_1644,StressSession,3.2.3,60.00078000210939,
27,green,440,1.0,,,,,,0,26,26,26,,,,,,,,,,,,,,,,,,,,,rs,002,2019_Oct_05_1644,StressSession,3.2.3,60.00078000210939,
28,green,440,1.0,,,,,,0,27,27,27,,,,,,,,,,,,,,,,,,,,,rs,002,2019_Oct_05_1644,StressSession,3.2.3,60.00078000210939,
29,green,440,1.0,,,,,,0,28,28,28,,,,,,,,,,,,,,,,,,,,,rs,002,2019_Oct_05_1644,StressSession,3.2.3,60.00078000210939,
30,green,440,1.0,,,,,,0,29,29,29,,,,,,,,,,,,,,,,,,,,,rs,002,2019_Oct_05_1644,StressSession,3.2.3,60.00078000210939,
31,green,440,1.0,,,,,,0,30,30,30,,,,,,,,,,,,,,,,,,,,,rs,002,2019_Oct_05_1644,StressSession,3.2.3,60.00078000210939,
32,green,440,1.0,,,,,,0,31,31,31,,,,,,,,,,,,,,,,,,,,,rs,002,2019_Oct_05_1644,StressSession,3.2.3,60.00078000210939,
33,green,440,1.0,,,,,,0,32,32,32,,,,,,,,,,,,,,,,,,,,,rs,002,2019_Oct_05_1644,StressSession,3.2.3,60.00078000210939,
34,green,440,1.0,,,,,,0,33,33,33,,,,,,,,,,,,,,,,,,,,,rs,002,2019_Oct_05_1644,StressSession,3.2.3,60.00078000210939,
35,green,440,1.0,,,,,,0,34,34,34,,,,,,,,,,,,,,,,,,,,,rs,002,2019_Oct_05_1644,StressSession,3.2.3,60.00078000210939,
36,green,440,1.0,,,,,,0,35,35,35,,,,,,,,,,,,,,,,,,,,,rs,002,2019_Oct_05_1644,StressSession,3.2.3,60.00078000210939,
37,green,440,1.0,,,,,,0,36,36,36,,,,,,,,,,,,,,,,,,,,,rs,002,2019_Oct_05_1644,StressSession,3.2.3,60.00078000210939,
38,green,440,1.0,,,,,,0,37,37,37,,,,,,,,,,,,,,,,,,,,,rs,002,2019_Oct_05_1644,StressSession,3.2.3,60.00078000210939,
39,green,440,1.0,,,,,,0,38,38,38,,,,,,,,,,,,,,,,,,,,,rs,002,2019_Oct_05_1644,StressSession,3.2.3,60.00078000210939,
40,green,440,1.0,,,,,,0,39,39,39,,,,,,,,,,,,,,,,,,,,,rs,002,2019_Oct_05_1644,StressSession,3.2.3,60.00078000210939,
41,green,440,1.0,,,,,,0,40,40,40,,,,,,,,,,,,,,,,,,,,,rs,002,2019_Oct_05_1644,StressSession,3.2.3,60.00078000210939,
42,green,440,1.0,,,,,,0,41,41,41,,,,,,,,,,,,,,,,,,,,,rs,002,2019_Oct_05_1644,StressSession,3.2.3,60.00078000210939,
43,green,440,1.0,,,,,,0,42,42,42,,,,,,,,,,,,,,,,,,,,,rs,002,2019_Oct_05_1644,StressSession,3.2.3,60.00078000210939,
44,green,440,1.0,,,,,,0,43,43,43,,,,,,,,,,,,,,,,,,,,,rs,002,2019_Oct_05_1644,StressSession,3.2.3,60.00078000210939,
45,green,440,1.0,,,,,,0,44,44,44,,,,,,,,,,,,,,,,,,,,,rs,002,2019_Oct_05_1644,StressSession,3.2.3,60.00078000210939,
46,green,440,1.0,,,,,,0,45,45,45,,,,,,,,,,,,,,,,,,,,,rs,002,2019_Oct_05_1644,StressSession,3.2.3,60.00078000210939,
47,green,440,1.0,,,,,,0,46,46,46,,,,,,,,,,,,,,,,,,,,,rs,002,2019_Oct_05_1644,StressSession,3.2.3,60.00078000210939,
48,green,440,1.0,,,,,,0,47,47,47,,,,,,,,,,,,,,,,,,,,,rs,002,2019_Oct_05_1644,StressSession,3.2.3,60.00078000210939,
49,green,440,1.0,,,,,,0,48,48,48,,,,,,,,,,,,,,,,,,,,,rs,002,2019_Oct_05_1644,StressSession,3.2.3,60.00078000210939,
50,green,440,1.0,,,,,,0,49,49,49,,,,,,,,,,,,,,,,,,,,,rs,002,2019_Oct_05_1644,StressSession,3.2.3,60.00078000210939,
51,green,440,1.0,,,,,,0,50,50,50,,,,,,,,,,,,,,,,,,,,,rs,002,2019_Oct_05_1644,StressSession,3.2.3,60.00078000210939,
52,green,440,1.0,,,,,,0,51,51,51,,,,,,,,,,,,,,,,,,,,,rs,002,2019_Oct_05_1644,StressSession,3.2.3,60.00078000210939,
53,green,440,1.0,,,,,,0,52,52,52,,,,,,,,,,,,,,,,,,,,,rs,002,2019_Oct_05_1644,StressSession,3.2.3,60.00078000210939,
54,green,440,1.0,,,,,,0,53,53,53,,,,,,,,,,,,,,,,,,,,,rs,002,2019_Oct_05_1644,StressSession,3.2.3,60.00078000210939,
55,green,440,1.0,,,,,,0,54,54,54,,,,,,,,,,,,,,,,,,,,,rs,002,2019_Oct_05_1644,StressSession,3.2.3,60.00078000210939,
56,green,440,1.0,,,,,,0,55,55,55,,,,,,,,,,,,,,,,,,,,,rs,002,2019_Oct_05_1644,StressSession,3.2.3,60.00078000210939,
57,green,440,1.0,,,,,,0,56,56,56,,,,,,,,,,,,,,,,,,,,,rs,002,2019_Oct_05_1644,StressSession,3.2.3,60.00078000210939,
58,green,440,1.0,,,,,,0,57,57,57,,,,,,,,,,,,,,,,,,,,,rs,002,2019_Oct_05_1644,StressSession,3.2.3,60.00078000210939,
59,green,440,1.0,,,,,,0,58,58,58,,,,,,,,,,,,,,,,,,,,,rs,002,2019_Oct_05_1644,StressSession,3.2.3,60.00078000210939,
60,green,440,1.0,,,,,,0,59,59,59,,,,,,,,,,,,,,,,,,,,,rs,002,2019_Oct_05_1644,StressSession,3.2.3,60.00078000210939,
61,green,440,1.0,,,,,,0,60,60,60,,,,,,,,,,,,,,,,,,,,,rs,002,2019_Oct_05_1644,StressSession,3.2.3,60.00078000210939,
62,green,440,1.0,,,,,,0,61,61,61,,,,,,,,,,,,,,,,,,,,,rs,002,2019_Oct_05_1644,StressSession,3.2.3,60.00078000210939,
63,green,440,1.0,,,,,,0,62,62,62,,,,,,,,,,,,,,,,,,,,,rs,002,2019_Oct_05_1644,StressSession,3.2.3,60.00078000210939,
64,green,440,1.0,,,,,,0,63,63,63,,,,,,,,,,,,,,,,,,,,,rs,002,2019_Oct_05_1644,StressSession,3.2.3,60.00078000210939,
65,green,440,1.0,,,,,,0,64,64,64,,,,,,,,,,,,,,,,,,,,,rs,002,2019_Oct_05_1644,StressSession,3.2.3,60.00078000210939,
66,green,440,1.0,,,,,,0,65,65,65,,,,,,,,,,,,,,,,,,,,,rs,002,2019_Oct_05_1644,StressSession,3.2.3,60.00078000210939,
67,green,440,1.0,,,,,,0,66,66,66,,,,,,,,,,,,,,,,,,,,,rs,002,2019_Oct_05_1644,StressSession,3.2.3,60.00078000210939,
68,green,440,1.0,,,,,,0,67,67,67,,,,,,,,,,,,,,,,,,,,,rs,002,2019_Oct_05_1644,StressSession,3.2.3,60.00078000210939,
69,green,440,1.0,,,,,,0,68,68,68,,,,,,,,,,,,,,,,,,,,,rs,002,2019_Oct_05_1644,StressSession,3.2.3,60.00078000210939,
70,green,440,1.0,,,,,,0,69,69,69,,,,,,,,,,,,,,,,,,,,,rs,002,2019_Oct_05_1644,StressSession,3.2.3,60.00078000210939,
71,green,440,1.0,,,,,,0,70,70,70,,,,,,,,,,,,,,,,,,,,,rs,002,2019_Oct_05_1644,StressSession,3.2.3,60.00078000210939,
72,green,440,1.0,,,,,,0,71,71,71,,,,,,,,,,,,,,,,,,,,,rs,002,2019_Oct_05_1644,StressSession,3.2.3,60.00078000210939,
73,green,440,1.0,,,,,,0,72,72,72,,,,,,,,,,,,,,,,,,,,,rs,002,2019_Oct_05_1644,StressSession,3.2.3,60.00078000210939,
74,green,440,1.0,,,,,,0,73,73,73,,,,,,,,,,,,,,,,,,,,,rs,002,2019_Oct_05_1644,StressSession,3.2.3,60.00078000210939,
75,green,440,1.0,,,,,,0,74,74,74,,,,,,,,,,,,,,,,,,,,,rs,002,2019_Oct_05_1644,StressSession,3.2.3,60.00078000210939,
76,green,440,1.0,,,,,,0,75,75,75,,,,,,,,,,,,,,,,,,,,,rs,002,2019_Oct_05_1644,StressSession,3.2.3,60.00078000210939,
77,green,440,1.0,,,,,,0,76,76,76,,,,,,,,,,,,,,,,,,,,,rs,002,2019_Oct_05_1644,StressSession,3.2.3,60.00078000210939,
78,green,440,1.0,,,,,,0,77,77,77,,,,,,,,,,,,,,,,,,,,,rs,002,2019_Oct_05_1644,StressSession,3.2.3,60.00078000210939,
79,green,440,1.0,,,,,,0,78,78,78,,,,,,,,,,,,,,,,,,,,,rs,002,2019_Oct_05_1644,StressSession,3.2.3,60.00078000210939,
80,green,440,1.0,,,,,,0,79,79,79,,,,,,,,,,,,,,,,,,,,,rs,002,2019_Oct_05_1644,StressSession,3.2.3,60.00078000210939,
81,green,440,1.0,,,,,,0,80,80,80,,,,,,,,,,,,,,,,,,,,,rs,002,2019_Oct_05_1644,StressSession,3.2.3,60.00078000210939,
82,green,440,1.0,,,,,,0,81,81,81,,,,,,,,,,,,,,,,,,,,,rs,002,2019_Oct_05_1644,StressSession,3.2.3,60.00078000210939,
83,green,440,1.0,,,,,,0,82,82,82,,,,,,,,,,,,,,,,,,,,,rs,002,2019_Oct_05_1644,StressSession,3.2.3,60.00078000210939,
84,green,440,1.0,,,,,,0,83,83,83,,,,,,,,,,,,,,,,,,,,,rs,002,2019_Oct_05_1644,StressSession,3.2.3,60.00078000210939,
85,green,440,1.0,,,,,,0,84,84,84,,,,,,,,,,,,,,,,,,,,,rs,002,2019_Oct_05_1644,StressSession,3.2.3,60.00078000210939,
86,green,440,1.0,,,,,,0,85,85,85,,,,,,,,,,,,,,,,,,,,,rs,002,2019_Oct_05_1644,StressSession,3.2.3,60.00078000210939,
87,green,440,1.0,,,,,,0,86,86,86,,,,,,,,,,,,,,,,,,,,,rs,002,2019_Oct_05_1644,StressSession,3.2.3,60.00078000210939,
88,green,440,1.0,,,,,,0,87,87,87,,,,,,,,,,,,,,,,,,,,,rs,002,2019_Oct_05_1644,StressSession,3.2.3,60.00078000210939,
89,green,440,1.0,,,,,,0,88,88,88,,,,,,,,,,,,,,,,,,,,,rs,002,2019_Oct_05_1644,StressSession,3.2.3,60.00078000210939,
90,green,440,1.0,,,,,,0,89,89,89,,,,,,,,,,,,,,,,,,,,,rs,002,2019_Oct_05_1644,StressSession,3.2.3,60.00078000210939,
91,green,440,1.0,,,,,,0,90,90,90,,,,,,,,,,,,,,,,,,,,,rs,002,2019_Oct_05_1644,StressSession,3.2.3,60.00078000210939,
92,green,440,1.0,,,,,,0,91,91,91,,,,,,,,,,,,,,,,,,,,,rs,002,2019_Oct_05_1644,StressSession,3.2.3,60.00078000210939,
93,green,440,1.0,,,,,,0,92,92,92,,,,,,,,,,,,,,,,,,,,,rs,002,2019_Oct_05_1644,StressSession,3.2.3,60.00078000210939,
94,green,440,1.0,,,,,,0,93,93,93,,,,,,,,,,,,,,,,,,,,,rs,002,2019_Oct_05_1644,StressSession,3.2.3,60.00078000210939,
95,green,440,1.0,,,,,,0,94,94,94,,,,,,,,,,,,,,,,,,,,,rs,002,2019_Oct_05_1644,StressSession,3.2.3,60.00078000210939,
96,green,440,1.0,,,,,,0,95,95,95,,,,,,,,,,,,,,,,,,,,,rs,002,2019_Oct_05_1644,StressSession,3.2.3,60.00078000210939,
97,green,440,1.0,,,,,,0,96,96,96,,,,,,,,,,,,,,,,,,,,,rs,002,2019_Oct_05_1644,StressSession,3.2.3,60.00078000210939,
98,green,440,1.0,,,,,,0,97,97,97,,,,,,,,,,,,,,,,,,,,,rs,002,2019_Oct_05_1644,StressSession,3.2.3,60.00078000210939,
99,green,440,1.0,,,,,,0,98,98,98,,,,,,,,,,,,,,,,,,,,,rs,002,2019_Oct_05_1644,StressSession,3.2.3,60.00078000210939,
100,green,440,1.0,,,,,,0,99,99,99,,,,,,,,,,,,,,,,,,,,,rs,002,2019_Oct_05_1644,StressSession,3.2.3,60.00078000210939,
101,green,440,1.0,,,,,,0,100,100,100,,,,,,,,,,,,,,,,,,,,,rs,002,2019_Oct_05_1644,StressSession,3.2.3,60.00078000210939,
102,green,440,1.0,,,,,,0,101,101,101,,,,,,,,,,,,,,,,,,,,,rs,002,2019_Oct_05_1644,StressSession,3.2.3,60.00078000210939,
103,green,440,1.0,,,,,,0,102,102,102,,,,,,,,,,,,,,,,,,,,,rs,002,2019_Oct_05_1644,StressSession,3.2.3,60.00078000210939,
104,green,440,1.0,,,,,,0,103,103,103,,,,,,,,,,,,,,,,,,,,,rs,002,2019_Oct_05_1644,StressSession,3.2.3,60.00078000210939,
105,green,440,1.0,,,,,,0,104,104,104,,,,,,,,,,,,,,,,,,,,,rs,002,2019_Oct_05_1644,StressSession,3.2.3,60.00078000210939,
106,green,440,1.0,,,,,,0,105,105,105,,,,,,,,,,,,,,,,,,,,,rs,002,2019_Oct_05_1644,StressSession,3.2.3,60.00078000210939,
107,green,440,1.0,,,,,,0,106,106,106,,,,,,,,,,,,,,,,,,,,,rs,002,2019_Oct_05_1644,StressSession,3.2.3,60.00078000210939,
108,green,440,1.0,,,,,,0,107,107,107,,,,,,,,,,,,,,,,,,,,,rs,002,2019_Oct_05_1644,StressSession,3.2.3,60.00078000210939,
109,green,440,1.0,,,,,,0,108,108,108,,,,,,,,,,,,,,,,,,,,,rs,002,2019_Oct_05_1644,StressSession,3.2.3,60.00078000210939,
110,green,440,1.0,,,,,,0,109,109,109,,,,,,,,,,,,,,,,,,,,,rs,002,2019_Oct_05_1644,StressSession,3.2.3,60.00078000210939,
111,green,440,1.0,,,,,,0,110,110,110,,,,,,,,,,,,,,,,,,,,,rs,002,2019_Oct_05_1644,StressSession,3.2.3,60.00078000210939,
112,green,440,1.0,,,,,,0,111,111,111,,,,,,,,,,,,,,,,,,,,,rs,002,2019_Oct_05_1644,StressSession,3.2.3,60.00078000210939,
113,green,440,1.0,,,,,,0,112,112,112,,,,,,,,,,,,,,,,,,,,,rs,002,2019_Oct_05_1644,StressSession,3.2.3,60.00078000210939,
114,green,440,1.0,,,,,,0,113,113,113,,,,,,,,,,,,,,,,,,,,,rs,002,2019_Oct_05_1644,StressSession,3.2.3,60.00078000210939,
115,green,440,1.0,,,,,,0,114,114,114,,,,,,,,,,,,,,,,,,,,,rs,002,2019_Oct_05_1644,StressSession,3.2.3,60.00078000210939,
116,green,440,1.0,,,,,,0,115,115,115,,,,,,,,,,,,,,,,,,,,,rs,002,2019_Oct_05_1644,StressSession,3.2.3,60.00078000210939,
117,green,440,1.0,,,,,,0,116,116,116,,,,,,,,,,,,,,,,,,,,,rs,002,2019_Oct_05_1644,StressSession,3.2.3,60.00078000210939,
118,green,440,1.0,,,,,,0,117,117,117,,,,,,,,,,,,,,,,,,,,,rs,002,2019_Oct_05_1644,StressSession,3.2.3,60.00078000210939,
119,green,440,1.0,,,,,,0,118,118,118,,,,,,,,,,,,,,,,,,,,,rs,002,2019_Oct_05_1644,StressSession,3.2.3,60.00078000210939,
120,green,440,1.0,,,,,,0,119,119,119,,,,,,,,,,,,,,,,,,,,,rs,002,2019_Oct_05_1644,StressSession,3.2.3,60.00078000210939,
121,green,440,1.0,,,,,,0,120,120,120,,,,,,,,,,,,,,,,,,,,,rs,002,2019_Oct_05_1644,StressSession,3.2.3,60.00078000210939,
122,green,440,1.0,,,,,,0,121,121,121,,,,,,,,,,,,,,,,,,,,,rs,002,2019_Oct_05_1644,StressSession,3.2.3,60.00078000210939,
123,green,440,1.0,,,,,,0,122,122,122,,,,,,,,,,,,,,,,,,,,,rs,002,2019_Oct_05_1644,StressSession,3.2.3,60.00078000210939,
124,green,440,1.0,,,,,,0,123,123,123,,,,,,,,,,,,,,,,,,,,,rs,002,2019_Oct_05_1644,StressSession,3.2.3,60.00078000210939,
125,green,440,1.0,,,,,,0,124,124,124,,,,,,,,,,,,,,,,,,,,,rs,002,2019_Oct_05_1644,StressSession,3.2.3,60.00078000210939,
126,green,440,1.0,,,,,,0,125,125,125,,,,,,,,,,,,,,,,,,,,,rs,002,2019_Oct_05_1644,StressSession,3.2.3,60.00078000210939,
127,green,440,1.0,,,,,,0,126,126,126,,,,,,,,,,,,,,,,,,,,,rs,002,2019_Oct_05_1644,StressSession,3.2.3,60.00078000210939,
128,green,440,1.0,,,,,,0,127,127,127,,,,,,,,,,,,,,,,,,,,,rs,002,2019_Oct_05_1644,StressSession,3.2.3,60.00078000210939,
129,green,440,1.0,,,,,,0,128,128,128,,,,,,,,,,,,,,,,,,,,,rs,002,2019_Oct_05_1644,StressSession,3.2.3,60.00078000210939,
130,green,440,1.0,,,,,,0,129,129,129,,,,,,,,,,,,,,,,,,,,,rs,002,2019_Oct_05_1644,StressSession,3.2.3,60.00078000210939,
131,green,440,1.0,,,,,,0,130,130,130,,,,,,,,,,,,,,,,,,,,,rs,002,2019_Oct_05_1644,StressSession,3.2.3,60.00078000210939,
132,green,440,1.0,,,,,,0,131,131,131,,,,,,,,,,,,,,,,,,,,,rs,002,2019_Oct_05_1644,StressSession,3.2.3,60.00078000210939,
133,green,440,1.0,,,,,,0,132,132,132,,,,,,,,,,,,,,,,,,,,,rs,002,2019_Oct_05_1644,StressSession,3.2.3,60.00078000210939,
134,green,440,1.0,,,,,,0,133,133,133,,,,,,,,,,,,,,,,,,,,,rs,002,2019_Oct_05_1644,StressSession,3.2.3,60.00078000210939,
135,green,440,1.0,,,,,,0,134,134,134,,,,,,,,,,,,,,,,,,,,,rs,002,2019_Oct_05_1644,StressSession,3.2.3,60.00078000210939,
136,green,440,1.0,,,,,,0,135,135,135,,,,,,,,,,,,,,,,,,,,,rs,002,2019_Oct_05_1644,StressSession,3.2.3,60.00078000210939,
137,green,440,1.0,,,,,,0,136,136,136,,,,,,,,,,,,,,,,,,,,,rs,002,2019_Oct_05_1644,StressSession,3.2.3,60.00078000210939,
138,green,440,1.0,,,,,,0,137,137,137,,,,,,,,,,,,,,,,,,,,,rs,002,2019_Oct_05_1644,StressSession,3.2.3,60.00078000210939,
139,green,440,1.0,,,,,,0,138,138,138,,,,,,,,,,,,,,,,,,,,,rs,002,2019_Oct_05_1644,StressSession,3.2.3,60.00078000210939,
140,green,440,1.0,,,,,,0,139,139,139,,,,,,,,,,,,,,,,,,,,,rs,002,2019_Oct_05_1644,StressSession,3.2.3,60.00078000210939,
141,green,440,1.0,,,,,,0,140,140,140,,,,,,,,,,,,,,,,,,,,,rs,002,2019_Oct_05_1644,StressSession,3.2.3,60.00078000210939,
142,green,440,1.0,,,,,,0,141,141,141,,,,,,,,,,,,,,,,,,,,,rs,002,2019_Oct_05_1644,StressSession,3.2.3,60.00078000210939,
143,green,440,1.0,,,,,,0,142,142,142,,,,,,,,,,,,,,,,,,,,,rs,002,2019_Oct_05_1644,StressSession,3.2.3,60.00078000210939,
144,green,440,1.0,,,,,,0,143,143,143,,,,,,,,,,,,,,,,,,,,,rs,002,2019_Oct_05_1644,StressSession,3.2.3,60.00078000210939,
145,green,440,1.0,,,,,,0,144,144,144,,,,,,,,,,,,,,,,,,,,,rs,002,2019_Oct_05_1644,StressSession,3.2.3,60.00078000210939,
146,green,440,1.0,,,,,,0,145,145,145,,,,,,,,,,,,,,,,,,,,,rs,002,2019_Oct_05_1644,StressSession,3.2.3,60.00078000210939,
147,green,440,1.0,,,,,,0,146,146,146,,,,,,,,,,,,,,,,,,,,,rs,002,2019_Oct_05_1644,StressSession,3.2.3,60.00078000210939,
148,green,440,1.0,,,,,,0,147,147,147,,,,,,,,,,,,,,,,,,,,,rs,002,2019_Oct_05_1644,StressSession,3.2.3,60.00078000210939,
149,green,440,1.0,,,,,,0,148,148,148,,,,,,,,,,,,,,,,,,,,,rs,002,2019_Oct_05_1644,StressSession,3.2.3,60.00078000210939,
150,green,440,1.0,,,,,,0,149,149,149,,,,,,,,,,,,,,,,,,,,,rs,002,2019_Oct_05_1644,StressSession,3.2.3,60.00078000210939,
151,green,440,1.0,,,,,,0,150,150,150,,,,,,,,,,,,,,,,,,,,,rs,002,2019_Oct_05_1644,StressSession,3.2.3,60.00078000210939,
152,green,440,1.0,,,,,,0,151,151,151,,,,,,,,,,,,,,,,,,,,,rs,002,2019_Oct_05_1644,StressSession,3.2.3,60.00078000210939,
153,green,440,1.0,,,,,,0,152,152,152,,,,,,,,,,,,,,,,,,,,,rs,002,2019_Oct_05_1644,StressSession,3.2.3,60.00078000210939,
154,green,440,1.0,,,,,,0,153,153,153,,,,,,,,,,,,,,,,,,,,,rs,002,2019_Oct_05_1644,StressSession,3.2.3,60.00078000210939,
155,green,440,1.0,,,,,,0,154,154,154,,,,,,,,,,,,,,,,,,,,,rs,002,2019_Oct_05_1644,StressSession,3.2.3,60.00078000210939,
156,green,440,1.0,,,,,,0,155,155,155,,,,,,,,,,,,,,,,,,,,,rs,002,2019_Oct_05_1644,StressSession,3.2.3,60.00078000210939,
157,green,440,1.0,,,,,,0,156,156,156,,,,,,,,,,,,,,,,,,,,,rs,002,2019_Oct_05_1644,StressSession,3.2.3,60.00078000210939,
158,green,440,1.0,,,,,,0,157,157,157,,,,,,,,,,,,,,,,,,,,,rs,002,2019_Oct_05_1644,StressSession,3.2.3,60.00078000210939,
159,green,440,1.0,,,,,,0,158,158,158,,,,,,,,,,,,,,,,,,,,,rs,002,2019_Oct_05_1644,StressSession,3.2.3,60.00078000210939,
160,green,440,1.0,,,,,,0,159,159,159,,,,,,,,,,,,,,,,,,,,,rs,002,2019_Oct_05_1644,StressSession,3.2.3,60.00078000210939,
161,green,440,1.0,,,,,,0,160,160,160,,,,,,,,,,,,,,,,,,,,,rs,002,2019_Oct_05_1644,StressSession,3.2.3,60.00078000210939,
162,green,440,1.0,,,,,,0,161,161,161,,,,,,,,,,,,,,,,,,,,,rs,002,2019_Oct_05_1644,StressSession,3.2.3,60.00078000210939,
163,green,440,1.0,,,,,,0,162,162,162,,,,,,,,,,,,,,,,,,,,,rs,002,2019_Oct_05_1644,StressSession,3.2.3,60.00078000210939,
164,green,440,1.0,,,,,,0,163,163,163,,,,,,,,,,,,,,,,,,,,,rs,002,2019_Oct_05_1644,StressSession,3.2.3,60.00078000210939,
165,green,440,1.0,,,,,,0,164,164,164,,,,,,,,,,,,,,,,,,,,,rs,002,2019_Oct_05_1644,StressSession,3.2.3,60.00078000210939,
166,green,440,1.0,,,,,,0,165,165,165,,,,,,,,,,,,,,,,,,,,,rs,002,2019_Oct_05_1644,StressSession,3.2.3,60.00078000210939,
167,green,440,1.0,,,,,,0,166,166,166,,,,,,,,,,,,,,,,,,,,,rs,002,2019_Oct_05_1644,StressSession,3.2.3,60.00078000210939,
168,green,440,1.0,,,,,,0,167,167,167,,,,,,,,,,,,,,,,,,,,,rs,002,2019_Oct_05_1644,StressSession,3.2.3,60.00078000210939,
169,green,440,1.0,,,,,,0,168,168,168,,,,,,,,,,,,,,,,,,,,,rs,002,2019_Oct_05_1644,StressSession,3.2.3,60.00078000210939,
170,green,440,1.0,,,,,,0,169,169,169,,,,,,,,,,,,,,,,,,,,,rs,002,2019_Oct_05_1644,StressSession,3.2.3,60.00078000210939,
171,green,440,1.0,,,,,,0,170,170,170,,,,,,,,,,,,,,,,,,,,,rs,002,2019_Oct_05_1644,StressSession,3.2.3,60.00078000210939,
172,green,440,1.0,,,,,,0,171,171,171,,,,,,,,,,,,,,,,,,,,,rs,002,2019_Oct_05_1644,StressSession,3.2.3,60.00078000210939,
173,green,440,1.0,,,,,,0,172,172,172,,,,,,,,,,,,,,,,,,,,,rs,002,2019_Oct_05_1644,StressSession,3.2.3,60.00078000210939,
174,green,440,1.0,,,,,,0,173,173,173,,,,,,,,,,,,,,,,,,,,,rs,002,2019_Oct_05_1644,StressSession,3.2.3,60.00078000210939,
175,green,440,1.0,,,,,,0,174,174,174,,,,,,,,,,,,,,,,,,,,,rs,002,2019_Oct_05_1644,StressSession,3.2.3,60.00078000210939,
176,green,440,1.0,,,,,,0,175,175,175,,,,,,,,,,,,,,,,,,,,,rs,002,2019_Oct_05_1644,StressSession,3.2.3,60.00078000210939,
177,green,440,1.0,,,,,,0,176,176,176,,,,,,,,,,,,,,,,,,,,,rs,002,2019_Oct_05_1644,StressSession,3.2.3,60.00078000210939,
178,green,440,1.0,,,,,,0,177,177,177,,,,,,,,,,,,,,,,,,,,,rs,002,2019_Oct_05_1644,StressSession,3.2.3,60.00078000210939,
179,green,440,1.0,,,,,,0,178,178,178,,,,,,,,,,,,,,,,,,,,,rs,002,2019_Oct_05_1644,StressSession,3.2.3,60.00078000210939,
180,yellow,880,0.5,,,,,,0,179,179,179,,,,,,,,,,,,,,,,,,,,,rs,002,2019_Oct_05_1644,StressSession,3.2.3,60.00078000210939,
181,yellow,880,0.5,,,,,,0,180,180,180,,,,,,,,,,,,,,,,,,,,,rs,002,2019_Oct_05_1644,StressSession,3.2.3,60.00078000210939,
182,yellow,880,0.5,,,,,,0,181,181,181,,,,,,,,,,,,,,,,,,,,,rs,002,2019_Oct_05_1644,StressSession,3.2.3,60.00078000210939,
183,yellow,880,0.5,,,,,,0,182,182,182,,,,,,,,,,,,,,,,,,,,,rs,002,2019_Oct_05_1644,StressSession,3.2.3,60.00078000210939,
184,yellow,880,0.5,,,,,,0,183,183,183,,,,,,,,,,,,,,,,,,,,,rs,002,2019_Oct_05_1644,StressSession,3.2.3,60.00078000210939,
185,yellow,880,0.5,,,,,,0,184,184,184,,,,,,,,,,,,,,,,,,,,,rs,002,2019_Oct_05_1644,StressSession,3.2.3,60.00078000210939,
186,yellow,880,0.5,,,,,,0,185,185,185,,,,,,,,,,,,,,,,,,,,,rs,002,2019_Oct_05_1644,StressSession,3.2.3,60.00078000210939,
187,yellow,880,0.5,,,,,,0,186,186,186,,,,,,,,,,,,,,,,,,,,,rs,002,2019_Oct_05_1644,StressSession,3.2.3,60.00078000210939,
188,yellow,880,0.5,,,,,,0,187,187,187,,,,,,,,,,,,,,,,,,,,,rs,002,2019_Oct_05_1644,StressSession,3.2.3,60.00078000210939,
189,yellow,880,0.5,,,,,,0,188,188,188,,,,,,,,,,,,,,,,,,,,,rs,002,2019_Oct_05_1644,StressSession,3.2.3,60.00078000210939,
190,yellow,880,0.5,,,,,,0,189,189,189,,,,,,,,,,,,,,,,,,,,,rs,002,2019_Oct_05_1644,StressSession,3.2.3,60.00078000210939,
191,yellow,880,0.5,,,,,,0,190,190,190,,,,,,,,,,,,,,,,,,,,,rs,002,2019_Oct_05_1644,StressSession,3.2.3,60.00078000210939,
192,yellow,880,0.5,,,,,,0,191,191,191,,,,,,,,,,,,,,,,,,,,,rs,002,2019_Oct_05_1644,StressSession,3.2.3,60.00078000210939,
193,yellow,880,0.5,,,,,,0,192,192,192,,,,,,,,,,,,,,,,,,,,,rs,002,2019_Oct_05_1644,StressSession,3.2.3,60.00078000210939,
194,yellow,880,0.5,,,,,,0,193,193,193,,,,,,,,,,,,,,,,,,,,,rs,002,2019_Oct_05_1644,StressSession,3.2.3,60.00078000210939,
195,yellow,880,0.5,,,,,,0,194,194,194,,,,,,,,,,,,,,,,,,,,,rs,002,2019_Oct_05_1644,StressSession,3.2.3,60.00078000210939,
196,yellow,880,0.5,,,,,,0,195,195,195,,,,,,,,,,,,,,,,,,,,,rs,002,2019_Oct_05_1644,StressSession,3.2.3,60.00078000210939,
197,yellow,880,0.5,,,,,,0,196,196,196,,,,,,,,,,,,,,,,,,,,,rs,002,2019_Oct_05_1644,StressSession,3.2.3,60.00078000210939,
198,yellow,880,0.5,,,,,,0,197,197,197,,,,,,,,,,,,,,,,,,,,,rs,002,2019_Oct_05_1644,StressSession,3.2.3,60.00078000210939,
199,yellow,880,0.5,,,,,,0,198,198,198,,,,,,,,,,,,,,,,,,,,,rs,002,2019_Oct_05_1644,StressSession,3.2.3,60.00078000210939,
200,yellow,880,0.5,,,,,,0,199,199,199,,,,,,,,,,,,,,,,,,,,,rs,002,2019_Oct_05_1644,StressSession,3.2.3,60.00078000210939,
201,yellow,880,0.5,,,,,,0,200,200,200,,,,,,,,,,,,,,,,,,,,,rs,002,2019_Oct_05_1644,StressSession,3.2.3,60.00078000210939,
202,yellow,880,0.5,,,,,,0,201,201,201,,,,,,,,,,,,,,,,,,,,,rs,002,2019_Oct_05_1644,StressSession,3.2.3,60.00078000210939,
203,yellow,880,0.5,,,,,,0,202,202,202,,,,,,,,,,,,,,,,,,,,,rs,002,2019_Oct_05_1644,StressSession,3.2.3,60.00078000210939,
204,yellow,880,0.5,,,,,,0,203,203,203,,,,,,,,,,,,,,,,,,,,,rs,002,2019_Oct_05_1644,StressSession,3.2.3,60.00078000210939,
205,yellow,880,0.5,,,,,,0,204,204,204,,,,,,,,,,,,,,,,,,,,,rs,002,2019_Oct_05_1644,StressSession,3.2.3,60.00078000210939,
206,yellow,880,0.5,,,,,,0,205,205,205,,,,,,,,,,,,,,,,,,,,,rs,002,2019_Oct_05_1644,StressSession,3.2.3,60.00078000210939,
207,yellow,880,0.5,,,,,,0,206,206,206,,,,,,,,,,,,,,,,,,,,,rs,002,2019_Oct_05_1644,StressSession,3.2.3,60.00078000210939,
208,yellow,880,0.5,,,,,,0,207,207,207,,,,,,,,,,,,,,,,,,,,,rs,002,2019_Oct_05_1644,StressSession,3.2.3,60.00078000210939,
209,yellow,880,0.5,,,,,,0,208,208,208,,,,,,,,,,,,,,,,,,,,,rs,002,2019_Oct_05_1644,StressSession,3.2.3,60.00078000210939,
210,yellow,880,0.5,,,,,,0,209,209,209,,,,,,,,,,,,,,,,,,,,,rs,002,2019_Oct_05_1644,StressSession,3.2.3,60.00078000210939,
211,yellow,880,0.5,,,,,,0,210,210,210,,,,,,,,,,,,,,,,,,,,,rs,002,2019_Oct_05_1644,StressSession,3.2.3,60.00078000210939,
212,yellow,880,0.5,,,,,,0,211,211,211,,,,,,,,,,,,,,,,,,,,,rs,002,2019_Oct_05_1644,StressSession,3.2.3,60.00078000210939,
213,yellow,880,0.5,,,,,,0,212,212,212,,,,,,,,,,,,,,,,,,,,,rs,002,2019_Oct_05_1644,StressSession,3.2.3,60.00078000210939,
214,yellow,880,0.5,,,,,,0,213,213,213,,,,,,,,,,,,,,,,,,,,,rs,002,2019_Oct_05_1644,StressSession,3.2.3,60.00078000210939,
215,yellow,880,0.5,,,,,,0,214,214,214,,,,,,,,,,,,,,,,,,,,,rs,002,2019_Oct_05_1644,StressSession,3.2.3,60.00078000210939,
216,yellow,880,0.5,,,,,,0,215,215,215,,,,,,,,,,,,,,,,,,,,,rs,002,2019_Oct_05_1644,StressSession,3.2.3,60.00078000210939,
217,yellow,880,0.5,,,,,,0,216,216,216,,,,,,,,,,,,,,,,,,,,,rs,002,2019_Oct_05_1644,StressSession,3.2.3,60.00078000210939,
218,yellow,880,0.5,,,,,,0,217,217,217,,,,,,,,,,,,,,,,,,,,,rs,002,2019_Oct_05_1644,StressSession,3.2.3,60.00078000210939,
219,yellow,880,0.5,,,,,,0,218,218,218,,,,,,,,,,,,,,,,,,,,,rs,002,2019_Oct_05_1644,StressSession,3.2.3,60.00078000210939,
220,yellow,880,0.5,,,,,,0,219,219,219,,,,,,,,,,,,,,,,,,,,,rs,002,2019_Oct_05_1644,StressSession,3.2.3,60.00078000210939,
221,yellow,880,0.5,,,,,,0,220,220,220,,,,,,,,,,,,,,,,,,,,,rs,002,2019_Oct_05_1644,StressSession,3.2.3,60.00078000210939,
222,yellow,880,0.5,,,,,,0,221,221,221,,,,,,,,,,,,,,,,,,,,,rs,002,2019_Oct_05_1644,StressSession,3.2.3,60.00078000210939,
223,yellow,880,0.5,,,,,,0,222,222,222,,,,,,,,,,,,,,,,,,,,,rs,002,2019_Oct_05_1644,StressSession,3.2.3,60.00078000210939,
224,yellow,880,0.5,,,,,,0,223,223,223,,,,,,,,,,,,,,,,,,,,,rs,002,2019_Oct_05_1644,StressSession,3.2.3,60.00078000210939,
225,yellow,880,0.5,,,,,,0,224,224,224,,,,,,,,,,,,,,,,,,,,,rs,002,2019_Oct_05_1644,StressSession,3.2.3,60.00078000210939,
226,yellow,880,0.5,,,,,,0,225,225,225,,,,,,,,,,,,,,,,,,,,,rs,002,2019_Oct_05_1644,StressSession,3.2.3,60.00078000210939,
227,yellow,880,0.5,,,,,,0,226,226,226,,,,,,,,,,,,,,,,,,,,,rs,002,2019_Oct_05_1644,StressSession,3.2.3,60.00078000210939,
228,yellow,880,0.5,,,,,,0,227,227,227,,,,,,,,,,,,,,,,,,,,,rs,002,2019_Oct_05_1644,StressSession,3.2.3,60.00078000210939,
229,yellow,880,0.5,,,,,,0,228,228,228,,,,,,,,,,,,,,,,,,,,,rs,002,2019_Oct_05_1644,StressSession,3.2.3,60.00078000210939,
230,yellow,880,0.5,,,,,,0,229,229,229,,,,,,,,,,,,,,,,,,,,,rs,002,2019_Oct_05_1644,StressSession,3.2.3,60.00078000210939,
231,yellow,880,0.5,,,,,,0,230,230,230,,,,,,,,,,,,,,,,,,,,,rs,002,2019_Oct_05_1644,StressSession,3.2.3,60.00078000210939,
232,yellow,880,0.5,,,,,,0,231,231,231,,,,,,,,,,,,,,,,,,,,,rs,002,2019_Oct_05_1644,StressSession,3.2.3,60.00078000210939,
233,yellow,880,0.5,,,,,,0,232,232,232,,,,,,,,,,,,,,,,,,,,,rs,002,2019_Oct_05_1644,StressSession,3.2.3,60.00078000210939,
234,yellow,880,0.5,,,,,,0,233,233,233,,,,,,,,,,,,,,,,,,,,,rs,002,2019_Oct_05_1644,StressSession,3.2.3,60.00078000210939,
235,yellow,880,0.5,,,,,,0,234,234,234,,,,,,,,,,,,,,,,,,,,,rs,002,2019_Oct_05_1644,StressSession,3.2.3,60.00078000210939,
236,yellow,880,0.5,,,,,,0,235,235,235,,,,,,,,,,,,,,,,,,,,,rs,002,2019_Oct_05_1644,StressSession,3.2.3,60.00078000210939,
237,yellow,880,0.5,,,,,,0,236,236,236,,,,,,,,,,,,,,,,,,,,,rs,002,2019_Oct_05_1644,StressSession,3.2.3,60.00078000210939,
238,yellow,880,0.5,,,,,,0,237,237,237,,,,,,,,,,,,,,,,,,,,,rs,002,2019_Oct_05_1644,StressSession,3.2.3,60.00078000210939,
239,yellow,880,0.5,,,,,,0,238,238,238,,,,,,,,,,,,,,,,,,,,,rs,002,2019_Oct_05_1644,StressSession,3.2.3,60.00078000210939,
240,red,1760,0.5,,,,,,0,239,239,239,,,,,,,,,,,,,,,,,,,,,rs,002,2019_Oct_05_1644,StressSession,3.2.3,60.00078000210939,
241,red,1760,0.5,,,,,,0,240,240,240,,,,,,,,,,,,,,,,,,,,,rs,002,2019_Oct_05_1644,StressSession,3.2.3,60.00078000210939,
242,red,1760,0.5,,,,,,0,241,241,241,,,,,,,,,,,,,,,,,,,,,rs,002,2019_Oct_05_1644,StressSession,3.2.3,60.00078000210939,
243,red,1760,0.5,,,,,,0,242,242,242,,,,,,,,,,,,,,,,,,,,,rs,002,2019_Oct_05_1644,StressSession,3.2.3,60.00078000210939,
244,red,1760,0.5,,,,,,0,243,243,243,,,,,,,,,,,,,,,,,,,,,rs,002,2019_Oct_05_1644,StressSession,3.2.3,60.00078000210939,
245,red,1760,0.5,,,,,,0,244,244,244,,,,,,,,,,,,,,,,,,,,,rs,002,2019_Oct_05_1644,StressSession,3.2.3,60.00078000210939,
246,red,1760,0.5,,,,,,0,245,245,245,,,,,,,,,,,,,,,,,,,,,rs,002,2019_Oct_05_1644,StressSession,3.2.3,60.00078000210939,
247,red,1760,0.5,,,,,,0,246,246,246,,,,,,,,,,,,,,,,,,,,,rs,002,2019_Oct_05_1644,StressSession,3.2.3,60.00078000210939,
248,red,1760,0.5,,,,,,0,247,247,247,,,,,,,,,,,,,,,,,,,,,rs,002,2019_Oct_05_1644,StressSession,3.2.3,60.00078000210939,
249,red,1760,0.5,,,,,,0,248,248,248,,,,,,,,,,,,,,,,,,,,,rs,002,2019_Oct_05_1644,StressSession,3.2.3,60.00078000210939,
250,red,1760,0.5,,,,,,0,249,249,249,,,,,,,,,,,,,,,,,,,,,rs,002,2019_Oct_05_1644,StressSession,3.2.3,60.00078000210939,
251,red,1760,0.5,,,,,,0,250,250,250,,,,,,,,,,,,,,,,,,,,,rs,002,2019_Oct_05_1644,StressSession,3.2.3,60.00078000210939,
252,red,1760,0.5,,,,,,0,251,251,251,,,,,,,,,,,,,,,,,,,,,rs,002,2019_Oct_05_1644,StressSession,3.2.3,60.00078000210939,
253,red,1760,0.5,,,,,,0,252,252,252,,,,,,,,,,,,,,,,,,,,,rs,002,2019_Oct_05_1644,StressSession,3.2.3,60.00078000210939,
254,red,1760,0.5,,,,,,0,253,253,253,,,,,,,,,,,,,,,,,,,,,rs,002,2019_Oct_05_1644,StressSession,3.2.3,60.00078000210939,
255,red,1760,0.5,,,,,,0,254,254,254,,,,,,,,,,,,,,,,,,,,,rs,002,2019_Oct_05_1644,StressSession,3.2.3,60.00078000210939,
256,red,1760,0.5,,,,,,0,255,255,255,,,,,,,,,,,,,,,,,,,,,rs,002,2019_Oct_05_1644,StressSession,3.2.3,60.00078000210939,
257,red,1760,0.5,,,,,,0,256,256,256,,,,,,,,,,,,,,,,,,,,,rs,002,2019_Oct_05_1644,StressSession,3.2.3,60.00078000210939,
258,red,1760,0.5,,,,,,0,257,257,257,,,,,,,,,,,,,,,,,,,,,rs,002,2019_Oct_05_1644,StressSession,3.2.3,60.00078000210939,
259,red,1760,0.5,,,,,,0,258,258,258,,,,,,,,,,,,,,,,,,,,,rs,002,2019_Oct_05_1644,StressSession,3.2.3,60.00078000210939,
260,red,1760,0.5,,,,,,0,259,259,259,,,,,,,,,,,,,,,,,,,,,rs,002,2019_Oct_05_1644,StressSession,3.2.3,60.00078000210939,
261,red,1760,0.5,,,,,,0,260,260,260,,,,,,,,,,,,,,,,,,,,,rs,002,2019_Oct_05_1644,StressSession,3.2.3,60.00078000210939,
262,red,1760,0.5,,,,,,0,261,261,261,,,,,,,,,,,,,,,,,,,,,rs,002,2019_Oct_05_1644,StressSession,3.2.3,60.00078000210939,
263,red,1760,0.5,,,,,,0,262,262,262,,,,,,,,,,,,,,,,,,,,,rs,002,2019_Oct_05_1644,StressSession,3.2.3,60.00078000210939,
264,red,1760,0.5,,,,,,0,263,263,263,,,,,,,,,,,,,,,,,,,,,rs,002,2019_Oct_05_1644,StressSession,3.2.3,60.00078000210939,
265,red,1760,0.5,,,,,,0,264,264,264,,,,,,,,,,,,,,,,,,,,,rs,002,2019_Oct_05_1644,StressSession,3.2.3,60.00078000210939,
266,red,1760,0.5,,,,,,0,265,265,265,,,,,,,,,,,,,,,,,,,,,rs,002,2019_Oct_05_1644,StressSession,3.2.3,60.00078000210939,
267,red,1760,0.5,,,,,,0,266,266,266,,,,,,,,,,,,,,,,,,,,,rs,002,2019_Oct_05_1644,StressSession,3.2.3,60.00078000210939,
268,red,1760,0.5,,,,,,0,267,267,267,,,,,,,,,,,,,,,,,,,,,rs,002,2019_Oct_05_1644,StressSession,3.2.3,60.00078000210939,
269,red,1760,0.5,,,,,,0,268,268,268,,,,,,,,,,,,,,,,,,,,,rs,002,2019_Oct_05_1644,StressSession,3.2.3,60.00078000210939,
270,red,1760,0.5,,,,,,0,269,269,269,,,,,,,,,,,,,,,,,,,,,rs,002,2019_Oct_05_1644,StressSession,3.2.3,60.00078000210939,
271,red,1760,0.5,,,,,,0,270,270,270,,,,,,,,,,,,,,,,,,,,,rs,002,2019_Oct_05_1644,StressSession,3.2.3,60.00078000210939,
272,red,1760,0.5,,,,,,0,271,271,271,,,,,,,,,,,,,,,,,,,,,rs,002,2019_Oct_05_1644,StressSession,3.2.3,60.00078000210939,
273,red,1760,0.5,,,,,,0,272,272,272,,,,,,,,,,,,,,,,,,,,,rs,002,2019_Oct_05_1644,StressSession,3.2.3,60.00078000210939,
274,red,1760,0.5,,,,,,0,273,273,273,,,,,,,,,,,,,,,,,,,,,rs,002,2019_Oct_05_1644,StressSession,3.2.3,60.00078000210939,
275,red,1760,0.5,,,,,,0,274,274,274,,,,,,,,,,,,,,,,,,,,,rs,002,2019_Oct_05_1644,StressSession,3.2.3,60.00078000210939,
276,red,1760,0.5,,,,,,0,275,275,275,,,,,,,,,,,,,,,,,,,,,rs,002,2019_Oct_05_1644,StressSession,3.2.3,60.00078000210939,
277,red,1760,0.5,,,,,,0,276,276,276,,,,,,,,,,,,,,,,,,,,,rs,002,2019_Oct_05_1644,StressSession,3.2.3,60.00078000210939,
278,red,1760,0.5,,,,,,0,277,277,277,,,,,,,,,,,,,,,,,,,,,rs,002,2019_Oct_05_1644,StressSession,3.2.3,60.00078000210939,
279,red,1760,0.5,,,,,,0,278,278,278,,,,,,,,,,,,,,,,,,,,,rs,002,2019_Oct_05_1644,StressSession,3.2.3,60.00078000210939,
280,red,1760,0.5,,,,,,0,279,279,279,,,,,,,,,,,,,,,,,,,,,rs,002,2019_Oct_05_1644,StressSession,3.2.3,60.00078000210939,
281,red,1760,0.5,,,,,,0,280,280,280,,,,,,,,,,,,,,,,,,,,,rs,002,2019_Oct_05_1644,StressSession,3.2.3,60.00078000210939,
282,red,1760,0.5,,,,,,0,281,281,281,,,,,,,,,,,,,,,,,,,,,rs,002,2019_Oct_05_1644,StressSession,3.2.3,60.00078000210939,
283,red,1760,0.5,,,,,,0,282,282,282,,,,,,,,,,,,,,,,,,,,,rs,002,2019_Oct_05_1644,StressSession,3.2.3,60.00078000210939,
284,red,1760,0.5,,,,,,0,283,283,283,,,,,,,,,,,,,,,,,,,,,rs,002,2019_Oct_05_1644,StressSession,3.2.3,60.00078000210939,
285,red,1760,0.5,,,,,,0,284,284,284,,,,,,,,,,,,,,,,,,,,,rs,002,2019_Oct_05_1644,StressSession,3.2.3,60.00078000210939,
286,red,1760,0.5,,,,,,0,285,285,285,,,,,,,,,,,,,,,,,,,,,rs,002,2019_Oct_05_1644,StressSession,3.2.3,60.00078000210939,
287,red,1760,0.5,,,,,,0,286,286,286,,,,,,,,,,,,,,,,,,,,,rs,002,2019_Oct_05_1644,StressSession,3.2.3,60.00078000210939,
288,red,1760,0.5,,,,,,0,287,287,287,,,,,,,,,,,,,,,,,,,,,rs,002,2019_Oct_05_1644,StressSession,3.2.3,60.00078000210939,
289,red,1760,0.5,,,,,,0,288,288,288,,,,,,,,,,,,,,,,,,,,,rs,002,2019_Oct_05_1644,StressSession,3.2.3,60.00078000210939,
290,red,1760,0.5,,,,,,0,289,289,289,,,,,,,,,,,,,,,,,,,,,rs,002,2019_Oct_05_1644,StressSession,3.2.3,60.00078000210939,
291,red,1760,0.5,,,,,,0,290,290,290,,,,,,,,,,,,,,,,,,,,,rs,002,2019_Oct_05_1644,StressSession,3.2.3,60.00078000210939,
292,red,1760,0.5,,,,,,0,291,291,291,,,,,,,,,,,,,,,,,,,,,rs,002,2019_Oct_05_1644,StressSession,3.2.3,60.00078000210939,
293,red,1760,0.5,,,,,,0,292,292,292,,,,,,,,,,,,,,,,,,,,,rs,002,2019_Oct_05_1644,StressSession,3.2.3,60.00078000210939,
294,red,1760,0.5,,,,,,0,293,293,293,,,,,,,,,,,,,,,,,,,,,rs,002,2019_Oct_05_1644,StressSession,3.2.3,60.00078000210939,
295,red,1760,0.5,,,,,,0,294,294,294,,,,,,,,,,,,,,,,,,,,,rs,002,2019_Oct_05_1644,StressSession,3.2.3,60.00078000210939,
296,red,1760,0.5,,,,,,0,295,295,295,,,,,,,,,,,,,,,,,,,,,rs,002,2019_Oct_05_1644,StressSession,3.2.3,60.00078000210939,
297,red,1760,0.5,,,,,,0,296,296,296,,,,,,,,,,,,,,,,,,,,,rs,002,2019_Oct_05_1644,StressSession,3.2.3,60.00078000210939,
298,red,1760,0.5,,,,,,0,297,297,297,,,,,,,,,,,,,,,,,,,,,rs,002,2019_Oct_05_1644,StressSession,3.2.3,60.00078000210939,
299,red,1760,0.5,,,,,,0,298,298,298,,,,,,,,,,,,,,,,,,,,,rs,002,2019_Oct_05_1644,StressSession,3.2.3,60.00078000210939,
300,red,1760,0.5,,,,,,0,299,299,299,,,,,,,,,,,,,,,,,,,,,rs,002,2019_Oct_05_1644,StressSession,3.2.3,60.00078000210939,
,,,,,,,,,,,,,,,,,,,2019-10-05_16:51:45,5,27.902,,,,,,,,,,,,rs,002,2019_Oct_05_1644,StressSession,3.2.3,60.00078000210939,
,,,,,,,,,,,,,,,,,,,,,,7,30.007,,,,,,,,,,rs,002,2019_Oct_05_1644,StressSession,3.2.3,60.00078000210939,
,,,,blue,white,white,blue,left,,,,,0,0,0,127,,,,,,,,2019-10-05_16:55:09,right,1.6539082999806851,678.645007400075,None,,,,,rs,002,2019_Oct_05_1644,StressSession,3.2.3,60.00078000210939,
,,,,orange,brown,brown,orange,left,,,,,0,1,1,171,,,,,,,,,right,1.2458659999538213,680.8610183000565,None,,,,,rs,002,2019_Oct_05_1644,StressSession,3.2.3,60.00078000210939,
,,,,white,black,black,white,left,,,,,0,2,2,200,,,,,,,,,left,1.6466502998955548,682.66009879997,None,,,,,rs,002,2019_Oct_05_1644,StressSession,3.2.3,60.00078000210939,
,,,,purple,black,purple,black,right,,,,,0,3,3,72,,,,,,,,,right,1.1469996001105756,684.8558831000701,None,,,,,rs,002,2019_Oct_05_1644,StressSession,3.2.3,60.00078000210939,
,,,,magenta,brown,brown,magenta,left,,,,,0,4,4,144,,,,,,,,,left,2.1216851000208408,686.5609641000628,None,,,,,rs,002,2019_Oct_05_1644,StressSession,3.2.3,60.00078000210939,
,,,,green,purple,purple,green,left,,,,,0,5,5,134,,,,,,,,,left,1.4769857998471707,689.2314371999819,None,,,,,rs,002,2019_Oct_05_1644,StressSession,3.2.3,60.00078000210939,
,,,,black,cyan,black,cyan,right,,,,,0,6,6,104,,,,,,,,,right,1.2045198001433164,691.254525099881,None,,,,,rs,002,2019_Oct_05_1644,StressSession,3.2.3,60.00078000210939,
,,,,orange,green,orange,green,right,,,,,0,7,7,66,,,,,,,,,right,1.4342525000683963,693.0007217000239,None,,,,,rs,002,2019_Oct_05_1644,StressSession,3.2.3,60.00078000210939,
,,,,yellow,cyan,yellow,cyan,right,,,,,0,8,8,59,,,,,,,,,right,1.3296387000009418,694.9852930000052,None,,,,,rs,002,2019_Oct_05_1644,StressSession,3.2.3,60.00078000210939,
,,,,yellow,green,yellow,green,right,,,,,0,9,9,57,,,,,,,,,right,0.8326075000222772,696.8502225000411,None,,,,,rs,002,2019_Oct_05_1644,StressSession,3.2.3,60.00078000210939,
,,,,brown,green,green,brown,left,,,,,0,10,10,194,,,,,,,,,left,1.5662142001092434,698.2286725000013,None,,,,,rs,002,2019_Oct_05_1644,StressSession,3.2.3,60.00078000210939,
,,,,cyan,brown,cyan,brown,right,,,,,0,11,11,43,,,,,,,,,right,1.701953100040555,700.3409146999475,None,,,,,rs,002,2019_Oct_05_1644,StressSession,3.2.3,60.00078000210939,
,,,,green,magenta,green,magenta,right,,,,,0,12,12,20,,,,,,,,,right,1.4554172998759896,702.5955578999128,None,,,,,rs,002,2019_Oct_05_1644,StressSession,3.2.3,60.00078000210939,
,,,,blue,orange,orange,blue,left,,,,,0,13,13,124,,,,,,,,,left,1.183029199950397,704.5956220000517,None,,,,,rs,002,2019_Oct_05_1644,StressSession,3.2.3,60.00078000210939,
,,,,red,cyan,cyan,red,left,,,,,0,14,14,113,,,,,,,,,left,1.252412399975583,706.326273499988,None,,,,,rs,002,2019_Oct_05_1644,StressSession,3.2.3,60.00078000210939,
,,,,brown,purple,purple,brown,left,,,,,0,15,15,199,,,,,,,,,left,2.682124099927023,708.128626300022,None,,,,,rs,002,2019_Oct_05_1644,StressSession,3.2.3,60.00078000210939,
,,,,white,red,red,white,left,,,,,0,16,16,201,,,,,,,,,left,1.2029732000082731,711.3598374000285,None,,,,,rs,002,2019_Oct_05_1644,StressSession,3.2.3,60.00078000210939,
,,,,black,blue,blue,black,left,,,,,0,17,17,211,,,,,,,,,left,1.2479481999762356,713.1068221000023,None,,,,,rs,002,2019_Oct_05_1644,StressSession,3.2.3,60.00078000210939,
,,,,red,purple,purple,red,left,,,,,0,18,18,116,,,,,,,,,left,1.0562475000042468,714.8907961000223,None,,,,,rs,002,2019_Oct_05_1644,StressSession,3.2.3,60.00078000210939,
,,,,cyan,orange,cyan,orange,right,,,,,0,19,19,41,,,,,,,,,right,1.3508305000141263,716.4922704000492,None,,,,,rs,002,2019_Oct_05_1644,StressSession,3.2.3,60.00078000210939,
,,,,purple,green,purple,green,right,,,,,0,20,20,75,,,,,,,,,right,0.9522653000894934,718.3947316999547,None,,,,,rs,002,2019_Oct_05_1644,StressSession,3.2.3,60.00078000210939,
,,,,black,orange,black,orange,right,,,,,0,21,21,106,,,,,,,,,right,1.1911563000176102,719.8929206000175,None,,,,,rs,002,2019_Oct_05_1644,StressSession,3.2.3,60.00078000210939,
,,,,white,orange,white,orange,right,,,,,0,22,22,97,,,,,,,,,right,1.1672055998351425,721.619503099937,None,,,,,rs,002,2019_Oct_05_1644,StressSession,3.2.3,60.00078000210939,
,,,,red,blue,blue,red,left,,,,,0,23,23,110,,,,,,,,,left,1.1778019000776112,723.3221479998901,None,,,,,rs,002,2019_Oct_05_1644,StressSession,3.2.3,60.00078000210939,
,,,,cyan,red,red,cyan,left,,,,,0,24,24,156,,,,,,,,,left,1.3477570000104606,725.0391343999654,None,,,,,rs,002,2019_Oct_05_1644,StressSession,3.2.3,60.00078000210939,
,,,,blue,cyan,blue,cyan,right,,,,,0,25,25,12,,,,,,,,,right,0.9976045999210328,726.9342646000441,None,,,,,rs,002,2019_Oct_05_1644,StressSession,3.2.3,60.00078000210939,
,,,,white,red,white,red,right,,,,,0,26,26,91,,,,,,,,,right,0.9938439999241382,728.4729967999738,None,,,,,rs,002,2019_Oct_05_1644,StressSession,3.2.3,60.00078000210939,
,,,,brown,magenta,magenta,brown,left,,,,,0,27,27,195,,,,,,,,,left,1.5141633001621813,730.0086815999821,None,,,,,rs,002,2019_Oct_05_1644,StressSession,3.2.3,60.00078000210939,
,,,,white,green,green,white,left,,,,,0,28,28,203,,,,,,,,,left,1.195283600129187,732.0716399999801,None,,,,,rs,002,2019_Oct_05_1644,StressSession,3.2.3,60.00078000210939,
,,,,brown,yellow,yellow,brown,left,,,,,0,29,29,197,,,,,,,,,left,1.7536983001045883,733.8105146000162,None,,,,,rs,002,2019_Oct_05_1644,StressSession,3.2.3,60.00078000210939,
,,,,cyan,purple,cyan,purple,right,,,,,0,30,30,42,,,,,,,,,right,1.4760060999542475,736.1039758000989,None,,,,,rs,002,2019_Oct_05_1644,StressSession,3.2.3,60.00078000210939,
,,,,green,purple,green,purple,right,,,,,0,31,31,24,,,,,,,,,right,1.1678561000153422,738.1149685001001,None,,,,,rs,002,2019_Oct_05_1644,StressSession,3.2.3,60.00078000210939,
,,,,red,black,black,red,left,,,,,0,32,32,119,,,,,,,,,left,0.8801674998831004,739.8185757000465,None,,,,,rs,002,2019_Oct_05_1644,StressSession,3.2.3,60.00078000210939,
,,,,purple,brown,purple,brown,right,,,,,0,33,33,70,,,,,,,,,right,1.434924499830231,741.2400648999028,None,,,,,rs,002,2019_Oct_05_1644,StressSession,3.2.3,60.00078000210939,
,,,,orange,brown,orange,brown,right,,,,,0,34,34,61,,,,,,,,,right,1.3949372000060976,743.2168680999894,None,,,,,rs,002,2019_Oct_05_1644,StressSession,3.2.3,60.00078000210939,
,,,,yellow,black,black,yellow,left,,,,,0,35,35,164,,,,,,,,,left,1.2655281000770628,745.1536113000475,None,,,,,rs,002,2019_Oct_05_1644,StressSession,3.2.3,60.00078000210939,
,,,,green,cyan,cyan,green,left,,,,,0,36,36,131,,,,,,,,,left,1.0269180000759661,746.9685023999773,None,,,,,rs,002,2019_Oct_05_1644,StressSession,3.2.3,60.00078000210939,
,,,,magenta,purple,magenta,purple,right,,,,,0,37,37,33,,,,,,,,,right,3.1204490000382066,748.5398142999038,None,,,,,rs,002,2019_Oct_05_1644,StressSession,3.2.3,60.00078000210939,
,,,,green,blue,blue,green,left,,,,,0,38,38,139,,,,,,,,,left,0.9676062001381069,752.2034775998909,None,,,,,rs,002,2019_Oct_05_1644,StressSession,3.2.3,60.00078000210939,
,,,,red,brown,red,brown,right,,,,,0,39,39,7,,,,,,,,,left,1.6164710000157356,753.7142282999121,None,,,,,rs,002,2019_Oct_05_1644,StressSession,3.2.3,60.00078000210939,
,,,,magenta,purple,purple,magenta,left,,,,,0,40,40,143,,,,,,,,,left,3.7883258000947535,755.8872972999234,None,,,,,rs,002,2019_Oct_05_1644,StressSession,3.2.3,60.00078000210939,
,,,,purple,orange,purple,orange,right,,,,,0,41,41,79,,,,,,,,,right,2.254549599951133,760.2122424000409,None,,,,,rs,002,2019_Oct_05_1644,StressSession,3.2.3,60.00078000210939,
,,,,cyan,purple,purple,cyan,left,,,,,0,42,42,152,,,,,,,,,left,1.5682700001634657,763.01070600003,None,,,,,rs,002,2019_Oct_05_1644,StressSession,3.2.3,60.00078000210939,
,,,,brown,magenta,brown,magenta,right,,,,,0,43,43,85,,,,,,,,,right,1.6684965000022203,765.134284599917,None,,,,,rs,002,2019_Oct_05_1644,StressSession,3.2.3,60.00078000210939,
,,,,cyan,magenta,cyan,magenta,right,,,,,0,44,44,49,,,,,,,,,right,1.3482560000848025,767.3425360000692,None,,,,,rs,002,2019_Oct_05_1644,StressSession,3.2.3,60.00078000210939,
,,,,purple,orange,orange,purple,left,,,,,0,45,45,189,,,,,,,,,left,0.7276345998980105,769.2190664000809,None,,,,,rs,002,2019_Oct_05_1644,StressSession,3.2.3,60.00078000210939,
,,,,red,green,red,green,right,,,,,0,46,46,1,,,,,,,,,right,1.0949546000920236,770.4920041998848,None,,,,,rs,002,2019_Oct_05_1644,StressSession,3.2.3,60.00078000210939,
,,,,orange,blue,blue,orange,left,,,,,0,47,47,175,,,,,,,,,left,0.9543073000386357,772.1285659000278,None,,,,,rs,002,2019_Oct_05_1644,StressSession,3.2.3,60.00078000210939,
,,,,brown,white,white,brown,left,,,,,0,48,48,190,,,,,,,,,left,1.1518049999140203,773.6270723999478,None,,,,,rs,002,2019_Oct_05_1644,StressSession,3.2.3,60.00078000210939,
,,,,black,green,green,black,left,,,,,0,49,49,212,,,,,,,,,left,0.8324909000657499,775.3302591000684,None,,,,,rs,002,2019_Oct_05_1644,StressSession,3.2.3,60.00078000210939,
,,,,magenta,red,red,magenta,left,,,,,0,50,50,147,,,,,,,,,left,1.119921299861744,776.7148297000676,None,,,,,rs,002,2019_Oct_05_1644,StressSession,3.2.3,60.00078000210939,
,,,,purple,white,purple,white,right,,,,,0,51,51,71,,,,,,,,,right,2.1985235000029206,778.380291499896,None,,,,,rs,002,2019_Oct_05_1644,StressSession,3.2.3,60.00078000210939,
,,,,brown,red,red,brown,left,,,,,0,52,52,192,,,,,,,,,left,2.4443439999595284,781.1264289000537,None,,,,,rs,002,2019_Oct_05_1644,StressSession,3.2.3,60.00078000210939,
,,,,brown,cyan,brown,cyan,right,,,,,0,53,53,86,,,,,,,,,right,0.8347408999688923,784.1043857999612,None,,,,,rs,002,2019_Oct_05_1644,StressSession,3.2.3,60.00078000210939,
,,,,yellow,green,green,yellow,left,,,,,0,54,54,167,,,,,,,,,left,0.843173700151965,785.4797386000864,None,,,,,rs,002,2019_Oct_05_1644,StressSession,3.2.3,60.00078000210939,
,,,,purple,red,purple,red,right,,,,,0,55,55,73,,,,,,,,,right,0.7101845000870526,786.8769755999092,None,,,,,rs,002,2019_Oct_05_1644,StressSession,3.2.3,60.00078000210939,
,,,,magenta,white,white,magenta,left,,,,,0,56,56,145,,,,,,,,,left,0.8781964001245797,788.1326941000298,None,,,,,rs,002,2019_Oct_05_1644,StressSession,3.2.3,60.00078000210939,
,,,,green,white,white,green,left,,,,,0,57,57,136,,,,,,,,,left,1.5455803000368178,789.553172300104,None,,,,,rs,002,2019_Oct_05_1644,StressSession,3.2.3,60.00078000210939,
,,,,black,brown,black,brown,right,,,,,0,58,58,108,,,,,,,,,right,2.2525392998941243,791.638391100103,None,,,,,rs,002,2019_Oct_05_1644,StressSession,3.2.3,60.00078000210939,
,,,,white,green,white,green,right,,,,,0,59,59,93,,,,,,,,,right,0.8561982000246644,794.4433756000362,None,,,,,rs,002,2019_Oct_05_1644,StressSession,3.2.3,60.00078000210939,
,,,,purple,white,white,purple,left,,,,,0,60,60,181,,,,,,,,,left,1.1892725001089275,795.837559599895,None,,,,,rs,002,2019_Oct_05_1644,StressSession,3.2.3,60.00078000210939,
,,,,brown,black,black,brown,left,,,,,0,61,61,191,,,,,,,,,left,1.0544716001022607,797.5725793999154,None,,,,,rs,002,2019_Oct_05_1644,StressSession,3.2.3,60.00078000210939,
,,,,magenta,cyan,cyan,magenta,left,,,,,0,62,62,140,,,,,,,,,left,0.8420286001637578,799.176773800049,None,,,,,rs,002,2019_Oct_05_1644,StressSession,3.2.3,60.00078000210939,
,,,,yellow,orange,orange,yellow,left,,,,,0,63,63,160,,,,,,,,,left,1.3991947998292744,800.5556632999796,None,,,,,rs,002,2019_Oct_05_1644,StressSession,3.2.3,60.00078000210939,
,,,,cyan,red,cyan,red,right,,,,,0,64,64,46,,,,,,,,,right,2.3384400999639183,802.5044448000845,None,,,,,rs,002,2019_Oct_05_1644,StressSession,3.2.3,60.00078000210939,
,,,,green,orange,orange,green,left,,,,,0,65,65,133,,,,,,,,,left,1.2609294999856502,805.3900703000836,None,,,,,rs,002,2019_Oct_05_1644,StressSession,3.2.3,60.00078000210939,
,,,,black,green,black,green,right,,,,,0,66,66,102,,,,,,,,,right,1.051327400142327,807.1836232000496,None,,,,,rs,002,2019_Oct_05_1644,StressSession,3.2.3,60.00078000210939,
,,,,white,purple,purple,white,left,,,,,0,67,67,208,,,,,,,,,left,1.7903103998396546,808.7893924999516,None,,,,,rs,002,2019_Oct_05_1644,StressSession,3.2.3,60.00078000210939,
,,,,white,cyan,cyan,white,left,,,,,0,68,68,205,,,,,,,,,left,1.1990348000545055,811.107968899887,None,,,,,rs,002,2019_Oct_05_1644,StressSession,3.2.3,60.00078000210939,
,,,,purple,brown,brown,purple,left,,,,,0,69,69,180,,,,,,,,,left,1.5964737001340836,812.8543873999733,None,,,,,rs,002,2019_Oct_05_1644,StressSession,3.2.3,60.00078000210939,
,,,,orange,white,white,orange,left,,,,,0,70,70,172,,,,,,,,,left,0.7322662000078708,815.0064878000412,None,,,,,rs,002,2019_Oct_05_1644,StressSession,3.2.3,60.00078000210939,
,,,,white,orange,orange,white,left,,,,,0,71,71,207,,,,,,,,,left,1.0916705999989063,816.2873519000132,None,,,,,rs,002,2019_Oct_05_1644,StressSession,3.2.3,60.00078000210939,
,,,,orange,green,green,orange,left,,,,,0,72,72,176,,,,,,,,,left,1.810984899988398,817.9198471000418,None,,,,,rs,002,2019_Oct_05_1644,StressSession,3.2.3,60.00078000210939,
,,,,white,brown,white,brown,right,,,,,0,73,73,99,,,,,,,,,right,1.2534556000027806,820.2696076000575,None,,,,,rs,002,2019_Oct_05_1644,StressSession,3.2.3,60.00078000210939,
,,,,brown,blue,brown,blue,right,,,,,0,74,74,83,,,,,,,,,right,1.0955005001742393,822.0672963999677,None,,,,,rs,002,2019_Oct_05_1644,StressSession,3.2.3,60.00078000210939,
,,,,purple,red,red,purple,left,,,,,0,75,75,183,,,,,,,,,left,0.8618728001601994,823.7010967999231,None,,,,,rs,002,2019_Oct_05_1644,StressSession,3.2.3,60.00078000210939,
,,,,orange,white,orange,white,right,,,,,0,76,76,62,,,,,,,,,right,0.990379499970004,825.1017066000495,None,,,,,rs,002,2019_Oct_05_1644,StressSession,3.2.3,60.00078000210939,
,,,,black,orange,orange,black,left,,,,,0,77,77,216,,,,,,,,,left,1.6164494999684393,826.6268927999772,None,,,,,rs,002,2019_Oct_05_1644,StressSession,3.2.3,60.00078000210939,
,,,,cyan,black,cyan,black,right,,,,,0,78,78,45,,,,,,,,,right,0.8190476999152452,828.7759771000128,None,,,,,rs,002,2019_Oct_05_1644,StressSession,3.2.3,60.00078000210939,
,,,,blue,yellow,yellow,blue,left,,,,,0,79,79,123,,,,,,,,,left,0.6945400999393314,830.1324728000909,None,,,,,rs,002,2019_Oct_05_1644,StressSession,3.2.3,60.00078000210939,
,,,,purple,black,black,purple,left,,,,,0,80,80,182,,,,,,,,,left,0.8441308001056314,831.3667788000312,None,,,,,rs,002,2019_Oct_05_1644,StressSession,3.2.3,60.00078000210939,
,,,,orange,yellow,yellow,orange,left,,,,,0,81,81,179,,,,,,,,,left,1.2660523999948055,832.752822099952,None,,,,,rs,002,2019_Oct_05_1644,StressSession,3.2.3,60.00078000210939,
,,,,white,purple,white,purple,right,,,,,0,82,82,98,,,,,,,,,right,1.287547199986875,834.5633570000064,None,,,,,rs,002,2019_Oct_05_1644,StressSession,3.2.3,60.00078000210939,
,,,,yellow,brown,brown,yellow,left,,,,,0,83,83,162,,,,,,,,,left,1.3262734001036733,836.3973783000838,None,,,,,rs,002,2019_Oct_05_1644,StressSession,3.2.3,60.00078000210939,
,,,,white,yellow,white,yellow,right,,,,,0,84,84,96,,,,,,,,,right,1.0708105000667274,838.2599283999298,None,,,,,rs,002,2019_Oct_05_1644,StressSession,3.2.3,60.00078000210939,
,,,,yellow,purple,purple,yellow,left,,,,,0,85,85,161,,,,,,,,,left,1.2292846001219004,839.8777053998783,None,,,,,rs,002,2019_Oct_05_1644,StressSession,3.2.3,60.00078000210939,
,,,,green,red,red,green,left,,,,,0,86,86,138,,,,,,,,,left,0.8586359000764787,841.6481914999895,None,,,,,rs,002,2019_Oct_05_1644,StressSession,3.2.3,60.00078000210939,
,,,,white,blue,white,blue,right,,,,,0,87,87,92,,,,,,,,,right,0.8379091001115739,843.045198299922,None,,,,,rs,002,2019_Oct_05_1644,StressSession,3.2.3,60.00078000210939,
,,,,red,yellow,red,yellow,right,,,,,0,88,88,4,,,,,,,,,right,0.902674299897626,844.4282567000482,None,,,,,rs,002,2019_Oct_05_1644,StressSession,3.2.3,60.00078000210939,
,,,,black,cyan,cyan,black,left,,,,,0,89,89,214,,,,,,,,,left,0.7167319001164287,845.878290399909,None,,,,,rs,002,2019_Oct_05_1644,StressSession,3.2.3,60.00078000210939,
,,,,orange,blue,orange,blue,right,,,,,0,90,90,65,,,,,,,,,right,0.8726003000047058,847.1471700000111,None,,,,,rs,002,2019_Oct_05_1644,StressSession,3.2.3,60.00078000210939,
,,,,yellow,blue,yellow,blue,right,,,,,0,91,91,56,,,,,,,,,right,0.5939672999083996,848.5609818999656,None,,,,,rs,002,2019_Oct_05_1644,StressSession,3.2.3,60.00078000210939,
,,,,yellow,blue,blue,yellow,left,,,,,0,92,92,166,,,,,,,,,left,0.9117845001164824,849.6918264999986,None,,,,,rs,002,2019_Oct_05_1644,StressSession,3.2.3,60.00078000210939,
,,,,white,magenta,white,magenta,right,,,,,0,93,93,94,,,,,,,,,right,1.2868198999203742,851.1488765000831,None,,,,,rs,002,2019_Oct_05_1644,StressSession,3.2.3,60.00078000210939,
,,,,yellow,brown,yellow,brown,right,,,,,0,94,94,52,,,,,,,,,right,0.8125334999058396,852.9822380999103,None,,,,,rs,002,2019_Oct_05_1644,StressSession,3.2.3,60.00078000210939,
,,,,green,white,green,white,right,,,,,0,95,95,26,,,,,,,,,right,0.7632974998559803,854.3434572999831,None,,,,,rs,002,2019_Oct_05_1644,StressSession,3.2.3,60.00078000210939,
,,,,cyan,magenta,magenta,cyan,left,,,,,0,96,96,159,,,,,,,,,right,1.5914383998606354,855.6603502000216,None,,,,,rs,002,2019_Oct_05_1644,StressSession,3.2.3,60.00078000210939,
,,,,cyan,yellow,cyan,yellow,right,,,,,0,97,97,40,,,,,,,,,right,1.3078224998898804,857.7909262001049,None,,,,,rs,002,2019_Oct_05_1644,StressSession,3.2.3,60.00078000210939,
,,,,red,purple,red,purple,right,,,,,0,98,98,6,,,,,,,,,right,1.1313361001666635,859.6395872000139,None,,,,,rs,002,2019_Oct_05_1644,StressSession,3.2.3,60.00078000210939,
,,,,yellow,white,white,yellow,left,,,,,0,99,99,163,,,,,,,,,left,1.3132672000210732,861.3136577000841,None,,,,,rs,002,2019_Oct_05_1644,StressSession,3.2.3,60.00078000210939,
,,,,yellow,white,yellow,white,right,,,,,0,100,100,53,,,,,,,,,right,1.3454642000142485,863.1701060000341,None,,,,,rs,002,2019_Oct_05_1644,StressSession,3.2.3,60.00078000210939,
,,,,blue,white,blue,white,right,,,,,0,101,101,17,,,,,,,,,right,0.8349198000505567,865.0486401999369,None,,,,,rs,002,2019_Oct_05_1644,StressSession,3.2.3,60.00078000210939,
,,,,purple,magenta,magenta,purple,left,,,,,0,102,102,186,,,,,,,,,left,0.9318417999893427,866.4311351000797,None,,,,,rs,002,2019_Oct_05_1644,StressSession,3.2.3,60.00078000210939,
,,,,magenta,blue,magenta,blue,right,,,,,0,103,103,38,,,,,,,,,right,3.334340199828148,867.9086317999754,None,,,,,rs,002,2019_Oct_05_1644,StressSession,3.2.3,60.00078000210939,
,,,,magenta,yellow,yellow,magenta,left,,,,,0,104,104,141,,,,,,,,,left,0.8645524000748992,871.7862565000542,None,,,,,rs,002,2019_Oct_05_1644,StressSession,3.2.3,60.00078000210939,
,,,,brown,cyan,cyan,brown,left,,,,,0,105,105,196,,,,,,,,,left,1.0694933000486344,873.1895091999322,None,,,,,rs,002,2019_Oct_05_1644,StressSession,3.2.3,60.00078000210939,
,,,,brown,black,brown,black,right,,,,,0,106,106,81,,,,,,,,,right,0.7390598999336362,874.7998329000548,None,,,,,rs,002,2019_Oct_05_1644,StressSession,3.2.3,60.00078000210939,
,,,,brown,red,brown,red,right,,,,,0,107,107,82,,,,,,,,,right,2.0730266000609845,876.0745184000116,None,,,,,rs,002,2019_Oct_05_1644,StressSession,3.2.3,60.00078000210939,
,,,,brown,purple,brown,purple,right,,,,,0,108,108,89,,,,,,,,,right,1.9204344998579472,878.6757259001024,None,,,,,rs,002,2019_Oct_05_1644,StressSession,3.2.3,60.00078000210939,
,,,,cyan,blue,cyan,blue,right,,,,,0,109,109,47,,,,,,,,,right,1.3310581999830902,881.1358167000581,None,,,,,rs,002,2019_Oct_05_1644,StressSession,3.2.3,60.00078000210939,
,,,,blue,green,blue,green,right,,,,,0,110,110,10,,,,,,,,,right,0.831840000115335,883.0270692999475,None,,,,,rs,002,2019_Oct_05_1644,StressSession,3.2.3,60.00078000210939,
,,,,blue,green,green,blue,left,,,,,0,111,111,120,,,,,,,,,left,0.8775891999248415,884.3974140000064,None,,,,,rs,002,2019_Oct_05_1644,StressSession,3.2.3,60.00078000210939,
,,,,green,cyan,green,cyan,right,,,,,0,112,112,21,,,,,,,,,right,0.846666700206697,885.8122622999363,None,,,,,rs,002,2019_Oct_05_1644,StressSession,3.2.3,60.00078000210939,
,,,,orange,purple,orange,purple,right,,,,,0,113,113,60,,,,,,,,,right,1.2407009999733418,887.2037343999837,None,,,,,rs,002,2019_Oct_05_1644,StressSession,3.2.3,60.00078000210939,
,,,,brown,orange,orange,brown,left,,,,,0,114,114,198,,,,,,,,,left,1.7267713998444378,888.980387999909,None,,,,,rs,002,2019_Oct_05_1644,StressSession,3.2.3,60.00078000210939,
,,,,cyan,blue,blue,cyan,left,,,,,0,115,115,157,,,,,,,,,left,1.3435774999670684,891.251524799969,None,,,,,rs,002,2019_Oct_05_1644,StressSession,3.2.3,60.00078000210939,
,,,,green,black,black,green,left,,,,,0,116,116,137,,,,,,,,,left,1.2940028000157326,893.1329775999766,None,,,,,rs,002,2019_Oct_05_1644,StressSession,3.2.3,60.00078000210939,
,,,,red,orange,red,orange,right,,,,,0,117,117,5,,,,,,,,,right,1.446949000004679,894.9642695998773,None,,,,,rs,002,2019_Oct_05_1644,StressSession,3.2.3,60.00078000210939,
,,,,blue,red,red,blue,left,,,,,0,118,118,129,,,,,,,,,left,0.9726147998590022,896.9421184998937,None,,,,,rs,002,2019_Oct_05_1644,StressSession,3.2.3,60.00078000210939,
,,,,magenta,black,magenta,black,right,,,,,0,119,119,36,,,,,,,,,right,0.6990910999011248,898.4720495000947,None,,,,,rs,002,2019_Oct_05_1644,StressSession,3.2.3,60.00078000210939,
,,,,white,yellow,yellow,white,left,,,,,0,120,120,206,,,,,,,,,left,0.9441235000267625,899.7150701999199,None,,,,,rs,002,2019_Oct_05_1644,StressSession,3.2.3,60.00078000210939,
,,,,blue,magenta,magenta,blue,left,,,,,0,121,121,121,,,,,,,,,left,1.6157907999586314,901.2033855000045,None,,,,,rs,002,2019_Oct_05_1644,StressSession,3.2.3,60.00078000210939,
,,,,blue,red,blue,red,right,,,,,0,122,122,19,,,,,,,,,right,0.9960281001403928,903.3587126000784,None,,,,,rs,002,2019_Oct_05_1644,StressSession,3.2.3,60.00078000210939,
,,,,red,green,green,red,left,,,,,0,123,123,111,,,,,,,,,left,0.6847367000300437,904.9422224001028,None,,,,,rs,002,2019_Oct_05_1644,StressSession,3.2.3,60.00078000210939,
,,,,red,magenta,magenta,red,left,,,,,0,124,124,112,,,,,,,,,left,1.26356659992598,906.1554455000442,None,,,,,rs,002,2019_Oct_05_1644,StressSession,3.2.3,60.00078000210939,
,,,,brown,white,brown,white,right,,,,,0,125,125,80,,,,,,,,,right,0.6892622001469135,907.9617894999683,None,,,,,rs,002,2019_Oct_05_1644,StressSession,3.2.3,60.00078000210939,
,,,,orange,magenta,magenta,orange,left,,,,,0,126,126,177,,,,,,,,,left,1.569540100172162,909.2022889000364,None,,,,,rs,002,2019_Oct_05_1644,StressSession,3.2.3,60.00078000210939,
,,,,blue,purple,purple,blue,left,,,,,0,127,127,125,,,,,,,,,left,1.4645831999368966,911.3142639999278,None,,,,,rs,002,2019_Oct_05_1644,StressSession,3.2.3,60.00078000210939,
,,,,magenta,red,magenta,red,right,,,,,0,128,128,37,,,,,,,,,right,0.7843581999186426,913.3308500000276,None,,,,,rs,002,2019_Oct_05_1644,StressSession,3.2.3,60.00078000210939,
,,,,magenta,green,magenta,green,right,,,,,0,129,129,39,,,,,,,,,right,1.6082425999920815,914.6505970999133,None,,,,,rs,002,2019_Oct_05_1644,StressSession,3.2.3,60.00078000210939,
,,,,yellow,red,yellow,red,right,,,,,0,130,130,55,,,,,,,,,right,0.939647699939087,916.815407200018,None,,,,,rs,002,2019_Oct_05_1644,StressSession,3.2.3,60.00078000210939,
,,,,blue,yellow,blue,yellow,right,,,,,0,131,131,13,,,,,,,,,right,0.5806762001011521,918.2943593000527,None,,,,,rs,002,2019_Oct_05_1644,StressSession,3.2.3,60.00078000210939,
,,,,orange,black,black,orange,left,,,,,0,132,132,173,,,,,,,,,left,0.7160887999925762,919.4389879999217,None,,,,,rs,002,2019_Oct_05_1644,StressSession,3.2.3,60.00078000210939,
,,,,white,blue,blue,white,left,,,,,0,133,133,202,,,,,,,,,left,2.5250874999910593,920.694329699967,None,,,,,rs,002,2019_Oct_05_1644,StressSession,3.2.3,60.00078000210939,
,,,,black,red,black,red,right,,,,,0,134,134,100,,,,,,,,,right,1.0432752000633627,923.7601832998917,None,,,,,rs,002,2019_Oct_05_1644,StressSession,3.2.3,60.00078000210939,
,,,,magenta,yellow,magenta,yellow,right,,,,,0,135,135,31,,,,,,,,,right,0.8606208001729101,925.3502885999624,None,,,,,rs,002,2019_Oct_05_1644,StressSession,3.2.3,60.00078000210939,
,,,,green,magenta,magenta,green,left,,,,,0,136,136,130,,,,,,,,,left,1.3857652000151575,926.7533392999321,None,,,,,rs,002,2019_Oct_05_1644,StressSession,3.2.3,60.00078000210939,
,,,,orange,red,orange,red,right,,,,,0,137,137,64,,,,,,,,,right,0.7990158998873085,928.6917797001079,None,,,,,rs,002,2019_Oct_05_1644,StressSession,3.2.3,60.00078000210939,
,,,,blue,orange,blue,orange,right,,,,,0,138,138,14,,,,,,,,,right,0.9597984000574797,930.0433153000195,None,,,,,rs,002,2019_Oct_05_1644,StressSession,3.2.3,60.00078000210939,
,,,,yellow,magenta,yellow,magenta,right,,,,,0,139,139,58,,,,,,,,,right,1.0555480998009443,931.5475751999766,None,,,,,rs,002,2019_Oct_05_1644,StressSession,3.2.3,60.00078000210939,
,,,,black,purple,black,purple,right,,,,,0,140,140,107,,,,,,,,,right,2.811821899842471,933.143056999892,None,,,,,rs,002,2019_Oct_05_1644,StressSession,3.2.3,60.00078000210939,
,,,,green,yellow,yellow,green,left,,,,,0,141,141,132,,,,,,,,,left,0.6896316001657397,936.5054192000534,None,,,,,rs,002,2019_Oct_05_1644,StressSession,3.2.3,60.00078000210939,
,,,,magenta,brown,magenta,brown,right,,,,,0,142,142,34,,,,,,,,,right,1.0081100999377668,937.7388367000967,None,,,,,rs,002,2019_Oct_05_1644,StressSession,3.2.3,60.00078000210939,
,,,,blue,cyan,cyan,blue,left,,,,,0,143,143,122,,,,,,,,,left,0.6930092999245971,939.2860286999494,None,,,,,rs,002,2019_Oct_05_1644,StressSession,3.2.3,60.00078000210939,
,,,,red,magenta,red,magenta,right,,,,,0,144,144,2,,,,,,,,,right,1.3696800000034273,940.5212642000988,None,,,,,rs,002,2019_Oct_05_1644,StressSession,3.2.3,60.00078000210939,
,,,,yellow,black,yellow,black,right,,,,,0,145,145,54,,,,,,,,,right,0.6834305000957102,942.4395264999475,None,,,,,rs,002,2019_Oct_05_1644,StressSession,3.2.3,60.00078000210939,
,,,,green,red,green,red,right,,,,,0,146,146,28,,,,,,,,,right,0.8669467999134213,943.6719466999639,None,,,,,rs,002,2019_Oct_05_1644,StressSession,3.2.3,60.00078000210939,
,,,,red,blue,red,blue,right,,,,,0,147,147,0,,,,,,,,,left,1.1026783001143485,945.0842683000956,None,,,,,rs,002,2019_Oct_05_1644,StressSession,3.2.3,60.00078000210939,
,,,,black,white,black,white,right,,,,,0,148,148,109,,,,,,,,,left,1.6098703001625836,946.7376522000413,None,,,,,rs,002,2019_Oct_05_1644,StressSession,3.2.3,60.00078000210939,
,,,,yellow,purple,yellow,purple,right,,,,,0,149,149,51,,,,,,,,,right,2.4083869999740273,948.8904323999304,None,,,,,rs,002,2019_Oct_05_1644,StressSession,3.2.3,60.00078000210939,
,,,,blue,brown,blue,brown,right,,,,,0,150,150,16,,,,,,,,,right,0.9173183999955654,951.8375273998827,None,,,,,rs,002,2019_Oct_05_1644,StressSession,3.2.3,60.00078000210939,
,,,,purple,yellow,purple,yellow,right,,,,,0,151,151,78,,,,,,,,,right,0.6385667999275029,953.3083719999995,None,,,,,rs,002,2019_Oct_05_1644,StressSession,3.2.3,60.00078000210939,
,,,,purple,blue,blue,purple,left,,,,,0,152,152,184,,,,,,,,,left,0.9760743000078946,954.4827529999893,None,,,,,rs,002,2019_Oct_05_1644,StressSession,3.2.3,60.00078000210939,
,,,,green,orange,green,orange,right,,,,,0,153,153,23,,,,,,,,,right,1.5850974000059068,956.002387400018,None,,,,,rs,002,2019_Oct_05_1644,StressSession,3.2.3,60.00078000210939,
,,,,red,brown,brown,red,left,,,,,0,154,154,117,,,,,,,,,left,1.3718942999839783,958.1352266001049,None,,,,,rs,002,2019_Oct_05_1644,StressSession,3.2.3,60.00078000210939,
,,,,cyan,black,black,cyan,left,,,,,0,155,155,155,,,,,,,,,left,1.5910421998705715,960.0527619998902,None,,,,,rs,002,2019_Oct_05_1644,StressSession,3.2.3,60.00078000210939,
,,,,brown,blue,blue,brown,left,,,,,0,156,156,193,,,,,,,,,left,0.781769199995324,962.1812740000896,None,,,,,rs,002,2019_Oct_05_1644,StressSession,3.2.3,60.00078000210939,
,,,,black,brown,brown,black,left,,,,,0,157,157,218,,,,,,,,,left,1.2168581001460552,963.4982529000845,None,,,,,rs,002,2019_Oct_05_1644,StressSession,3.2.3,60.00078000210939,
,,,,purple,green,green,purple,left,,,,,0,158,158,185,,,,,,,,,left,0.7742590999696404,965.2692160001025,None,,,,,rs,002,2019_Oct_05_1644,StressSession,3.2.3,60.00078000210939,
,,,,red,yellow,yellow,red,left,,,,,0,159,159,114,,,,,,,,,left,0.7726871999911964,966.5825539000798,None,,,,,rs,002,2019_Oct_05_1644,StressSession,3.2.3,60.00078000210939,
,,,,white,brown,brown,white,left,,,,,0,160,160,209,,,,,,,,,left,2.3220708000008017,967.89685010002,None,,,,,rs,002,2019_Oct_05_1644,StressSession,3.2.3,60.00078000210939,
,,,,magenta,orange,magenta,orange,right,,,,,0,161,161,32,,,,,,,,,right,1.1435817000456154,970.7641537000891,None,,,,,rs,002,2019_Oct_05_1644,StressSession,3.2.3,60.00078000210939,
,,,,black,red,red,black,left,,,,,0,162,162,210,,,,,,,,,left,1.0645099999383092,972.4432326999959,None,,,,,rs,002,2019_Oct_05_1644,StressSession,3.2.3,60.00078000210939,
,,,,orange,yellow,orange,yellow,right,,,,,0,163,163,69,,,,,,,,,right,1.7198143999557942,974.0509575000033,None,,,,,rs,002,2019_Oct_05_1644,StressSession,3.2.3,60.00078000210939,
,,,,cyan,green,cyan,green,right,,,,,0,164,164,48,,,,,,,,,right,0.7523080001119524,976.3147237999365,None,,,,,rs,002,2019_Oct_05_1644,StressSession,3.2.3,60.00078000210939,
,,,,purple,cyan,purple,cyan,right,,,,,0,165,165,77,,,,,,,,,right,0.9833835999015719,977.6196975999046,None,,,,,rs,002,2019_Oct_05_1644,StressSession,3.2.3,60.00078000210939,
,,,,magenta,blue,blue,magenta,left,,,,,0,166,166,148,,,,,,,,,left,1.1546877000946552,979.1524042999372,None,,,,,rs,002,2019_Oct_05_1644,StressSession,3.2.3,60.00078000210939,
,,,,black,yellow,yellow,black,left,,,,,0,167,167,215,,,,,,,,,left,0.8673266998957843,980.8477076999843,None,,,,,rs,002,2019_Oct_05_1644,StressSession,3.2.3,60.00078000210939,
,,,,brown,green,brown,green,right,,,,,0,168,168,84,,,,,,,,,right,1.3840322999749333,982.2591500999406,None,,,,,rs,002,2019_Oct_05_1644,StressSession,3.2.3,60.00078000210939,
,,,,yellow,magenta,magenta,yellow,left,,,,,0,169,169,168,,,,,,,,,left,1.0085764999967068,984.195269000018,None,,,,,rs,002,2019_Oct_05_1644,StressSession,3.2.3,60.00078000210939,
,,,,blue,black,blue,black,right,,,,,0,170,170,18,,,,,,,,,right,0.7139457000885159,985.745057699969,None,,,,,rs,002,2019_Oct_05_1644,StressSession,3.2.3,60.00078000210939,
,,,,orange,purple,purple,orange,left,,,,,0,171,171,170,,,,,,,,,left,1.7798205998260528,987.0149507999886,None,,,,,rs,002,2019_Oct_05_1644,StressSession,3.2.3,60.00078000210939,
,,,,yellow,cyan,cyan,yellow,left,,,,,0,172,172,169,,,,,,,,,left,0.7154784000013024,989.3517340000253,None,,,,,rs,002,2019_Oct_05_1644,StressSession,3.2.3,60.00078000210939,
,,,,white,cyan,white,cyan,right,,,,,0,173,173,95,,,,,,,,,right,1.6155282000545412,990.6115230999421,None,,,,,rs,002,2019_Oct_05_1644,StressSession,3.2.3,60.00078000210939,
,,,,green,black,green,black,right,,,,,0,174,174,27,,,,,,,,,right,0.7875494998879731,992.7755734999664,None,,,,,rs,002,2019_Oct_05_1644,StressSession,3.2.3,60.00078000210939,
,,,,green,blue,green,blue,right,,,,,0,175,175,29,,,,,,,,,right,0.8434884999878705,994.0953508999664,None,,,,,rs,002,2019_Oct_05_1644,StressSession,3.2.3,60.00078000210939,
,,,,red,cyan,red,cyan,right,,,,,0,176,176,3,,,,,,,,,right,0.9450030999723822,995.4747711999808,None,,,,,rs,002,2019_Oct_05_1644,StressSession,3.2.3,60.00078000210939,
,,,,cyan,white,white,cyan,left,,,,,0,177,177,154,,,,,,,,,left,0.8903693000320345,996.9524407999124,None,,,,,rs,002,2019_Oct_05_1644,StressSession,3.2.3,60.00078000210939,
,,,,red,orange,orange,red,left,,,,,0,178,178,115,,,,,,,,,left,0.8190645999275148,998.3918562999461,None,,,,,rs,002,2019_Oct_05_1644,StressSession,3.2.3,60.00078000210939,
,,,,magenta,black,black,magenta,left,,,,,0,179,179,146,,,,,,,,,left,0.7828859998844564,999.7641884000041,None,,,,,rs,002,2019_Oct_05_1644,StressSession,3.2.3,60.00078000210939,
,,,,orange,magenta,orange,magenta,right,,,,,0,180,180,67,,,,,,,,,right,1.0893516999203712,1001.0975448999088,None,,,,,rs,002,2019_Oct_05_1644,StressSession,3.2.3,60.00078000210939,
,,,,blue,purple,blue,purple,right,,,,,0,181,181,15,,,,,,,,,right,1.5459577001165599,1002.7130374000408,None,,,,,rs,002,2019_Oct_05_1644,StressSession,3.2.3,60.00078000210939,
,,,,purple,yellow,yellow,purple,left,,,,,0,182,182,188,,,,,,,,,left,0.7155640001874417,1004.8073674999177,None,,,,,rs,002,2019_Oct_05_1644,StressSession,3.2.3,60.00078000210939,
,,,,blue,black,black,blue,left,,,,,0,183,183,128,,,,,,,,,left,1.1089789001271129,1006.0700874999166,None,,,,,rs,002,2019_Oct_05_1644,StressSession,3.2.3,60.00078000210939,
,,,,orange,red,red,orange,left,,,,,0,184,184,174,,,,,,,,,left,1.215616200119257,1007.7236929000355,None,,,,,rs,002,2019_Oct_05_1644,StressSession,3.2.3,60.00078000210939,
,,,,green,brown,brown,green,left,,,,,0,185,185,135,,,,,,,,,left,0.9678360000252724,1009.4913466998842,None,,,,,rs,002,2019_Oct_05_1644,StressSession,3.2.3,60.00078000210939,
,,,,red,white,red,white,right,,,,,0,186,186,8,,,,,,,,,right,0.832749200053513,1011.0023745000362,None,,,,,rs,002,2019_Oct_05_1644,StressSession,3.2.3,60.00078000210939,
,,,,cyan,yellow,yellow,cyan,left,,,,,0,187,187,150,,,,,,,,,left,0.8137697000056505,1012.3731901999563,None,,,,,rs,002,2019_Oct_05_1644,StressSession,3.2.3,60.00078000210939,
,,,,red,white,white,red,left,,,,,0,188,188,118,,,,,,,,,left,0.7482769000343978,1013.7347039000597,None,,,,,rs,002,2019_Oct_05_1644,StressSession,3.2.3,60.00078000210939,
,,,,white,magenta,magenta,white,left,,,,,0,189,189,204,,,,,,,,,left,1.8107914000283927,1015.0241749999113,None,,,,,rs,002,2019_Oct_05_1644,StressSession,3.2.3,60.00078000210939,
,,,,cyan,green,green,cyan,left,,,,,0,190,190,158,,,,,,,,,left,0.8060553001705557,1017.3896832999308,None,,,,,rs,002,2019_Oct_05_1644,StressSession,3.2.3,60.00078000210939,
,,,,orange,cyan,orange,cyan,right,,,,,0,191,191,68,,,,,,,,,right,0.8445975999347866,1018.7353618999477,None,,,,,rs,002,2019_Oct_05_1644,StressSession,3.2.3,60.00078000210939,
,,,,green,brown,green,brown,right,,,,,0,192,192,25,,,,,,,,,right,1.266154000069946,1020.1207536999136,None,,,,,rs,002,2019_Oct_05_1644,StressSession,3.2.3,60.00078000210939,
,,,,magenta,orange,orange,magenta,left,,,,,0,193,193,142,,,,,,,,,left,0.7808475999627262,1021.9422321000602,None,,,,,rs,002,2019_Oct_05_1644,StressSession,3.2.3,60.00078000210939,
,,,,black,yellow,black,yellow,right,,,,,0,194,194,105,,,,,,,,,right,0.898752799956128,1023.2723866000306,None,,,,,rs,002,2019_Oct_05_1644,StressSession,3.2.3,60.00078000210939,
,,,,orange,black,orange,black,right,,,,,0,195,195,63,,,,,,,,,right,0.8579985999967903,1024.7215927999932,None,,,,,rs,002,2019_Oct_05_1644,StressSession,3.2.3,60.00078000210939,
,,,,white,black,white,black,right,,,,,0,196,196,90,,,,,,,,,right,1.322445899946615,1026.1123935000505,None,,,,,rs,002,2019_Oct_05_1644,StressSession,3.2.3,60.00078000210939,
,,,,magenta,white,magenta,white,right,,,,,0,197,197,35,,,,,,,,,right,1.280124899931252,1027.99468480004,None,,,,,rs,002,2019_Oct_05_1644,StressSession,3.2.3,60.00078000210939,
,,,,brown,yellow,brown,yellow,right,,,,,0,198,198,87,,,,,,,,,right,0.8759550999384373,1029.8232501000166,None,,,,,rs,002,2019_Oct_05_1644,StressSession,3.2.3,60.00078000210939,
,,,,red,black,red,black,right,,,,,0,199,199,9,,,,,,,,,right,0.9128535999916494,1031.250111500034,None,,,,,rs,002,2019_Oct_05_1644,StressSession,3.2.3,60.00078000210939,
,,,,purple,blue,purple,blue,right,,,,,0,200,200,74,,,,,,,,,right,0.9455453001428396,1032.7053712999914,None,,,,,rs,002,2019_Oct_05_1644,StressSession,3.2.3,60.00078000210939,
,,,,black,blue,black,blue,right,,,,,0,201,201,101,,,,,,,,,right,0.8832258000038564,1034.1927143000066,None,,,,,rs,002,2019_Oct_05_1644,StressSession,3.2.3,60.00078000210939,
,,,,orange,cyan,cyan,orange,left,,,,,0,202,202,178,,,,,,,,,left,0.7667599997948855,1035.620378300082,None,,,,,rs,002,2019_Oct_05_1644,StressSession,3.2.3,60.00078000210939,
,,,,black,purple,purple,black,left,,,,,0,203,203,217,,,,,,,,,left,1.1728114001452923,1036.9343471999746,None,,,,,rs,002,2019_Oct_05_1644,StressSession,3.2.3,60.00078000210939,
,,,,black,magenta,magenta,black,left,,,,,0,204,204,213,,,,,,,,,left,1.49908860004507,1038.6397450999357,None,,,,,rs,002,2019_Oct_05_1644,StressSession,3.2.3,60.00078000210939,
,,,,brown,orange,brown,orange,right,,,,,0,205,205,88,,,,,,,,,right,0.8309888998046517,1040.6839417000301,None,,,,,rs,002,2019_Oct_05_1644,StressSession,3.2.3,60.00078000210939,
,,,,yellow,orange,yellow,orange,right,,,,,0,206,206,50,,,,,,,,,right,1.4618418999016285,1042.061966799898,None,,,,,rs,002,2019_Oct_05_1644,StressSession,3.2.3,60.00078000210939,
,,,,purple,cyan,cyan,purple,left,,,,,0,207,207,187,,,,,,,,,left,0.6284592999145389,1044.0703928999137,None,,,,,rs,002,2019_Oct_05_1644,StressSession,3.2.3,60.00078000210939,
,,,,blue,magenta,blue,magenta,right,,,,,0,208,208,11,,,,,,,,,right,0.6494758001063019,1045.2497348999605,None,,,,,rs,002,2019_Oct_05_1644,StressSession,3.2.3,60.00078000210939,
,,,,cyan,orange,orange,cyan,left,,,,,0,209,209,151,,,,,,,,,left,0.8764808000996709,1046.4471187000163,None,,,,,rs,002,2019_Oct_05_1644,StressSession,3.2.3,60.00078000210939,
,,,,black,magenta,black,magenta,right,,,,,0,210,210,103,,,,,,,,,right,0.8339429998304695,1047.8649659000803,None,,,,,rs,002,2019_Oct_05_1644,StressSession,3.2.3,60.00078000210939,
,,,,green,yellow,green,yellow,right,,,,,0,211,211,22,,,,,,,,,right,0.8281403000000864,1049.2468334001023,None,,,,,rs,002,2019_Oct_05_1644,StressSession,3.2.3,60.00078000210939,
,,,,yellow,red,red,yellow,left,,,,,0,212,212,165,,,,,,,,,left,0.867668200051412,1050.607291100081,None,,,,,rs,002,2019_Oct_05_1644,StressSession,3.2.3,60.00078000210939,
,,,,magenta,green,green,magenta,left,,,,,0,213,213,149,,,,,,,,,left,0.874636699911207,1052.0165623000357,None,,,,,rs,002,2019_Oct_05_1644,StressSession,3.2.3,60.00078000210939,
,,,,blue,brown,brown,blue,left,,,,,0,214,214,126,,,,,,,,,left,0.796380199957639,1053.4306463999674,None,,,,,rs,002,2019_Oct_05_1644,StressSession,3.2.3,60.00078000210939,
,,,,magenta,cyan,magenta,cyan,right,,,,,0,215,215,30,,,,,,,,,right,0.9554971000179648,1054.783455299912,None,,,,,rs,002,2019_Oct_05_1644,StressSession,3.2.3,60.00078000210939,
,,,,purple,magenta,purple,magenta,right,,,,,0,216,216,76,,,,,,,,,right,1.822561000008136,1056.284532000078,None,,,,,rs,002,2019_Oct_05_1644,StressSession,3.2.3,60.00078000210939,
,,,,cyan,brown,brown,cyan,left,,,,,0,217,217,153,,,,,,,,,left,1.270882099866867,1058.6441659999546,None,,,,,rs,002,2019_Oct_05_1644,StressSession,3.2.3,60.00078000210939,
,,,,cyan,white,cyan,white,right,,,,,0,218,218,44,,,,,,,,,right,1.0034149000421166,1060.4557789999526,None,,,,,rs,002,2019_Oct_05_1644,StressSession,3.2.3,60.00078000210939,
,,,,black,white,white,black,left,,,,,0,219,219,219,,,,,,,,,left,2.7070915000513196,1062.0081380999181,None,,,,,rs,002,2019_Oct_05_1644,StressSession,3.2.3,60.00078000210939,
,,,,,,,,,,,,,,,,,,,,2,13.009,,,,,,,,2019-10-05_17:01:37,,,,rs,002,2019_Oct_05_1644,StressSession,3.2.3,60.00078000210939,
,,,,,,,,,,,,,,,,,,,,,,3,10.764,,,,,,,,,,rs,002,2019_Oct_05_1644,StressSession,3.2.3,60.00078000210939,
,,,,,,,,,,,,,,,,,,,,1,9.83,,,,,,,,,2019-10-05_17:02:37,2019-10-05_17:07:37,,rs,002,2019_Oct_05_1644,StressSession,3.2.3,60.00078000210939,
,,,,,,,,,,,,,,,,,,,,,,,,,,,,,,,,2019-10-05_17:07:51,,,,,,,
