Tick,Color,Tone,TimeDur,WordItem,WordColor,AnsLeft,AnsRight,AnsCorr,tick.thisRepN,tick.thisTrialN,tick.thisN,tick.thisIndex,stroop_trials.thisRepN,stroop_trials.thisTrialN,stroop_trials.thisN,stroop_trials.thisIndex,start_session_two,start_stress_one,end_stress_one,rating_evaluation_one.response,rating_evaluation_one.rt,rating_evaluation_two.response,rating_evaluation_two.rt,start_stress_two,key_resp_part_two_meas.keys,key_resp_part_two_meas.rt,key_resp_part_two_meas.started,key_resp_part_two_meas.stopped,end_stress_two,start_cooldown_measurement,end_cooldown_measurement,end_session_two,participant,session,date,expName,psychopyVersion,frameRate,
1,green,440,1.0,,,,,,0,0,0,0,,,,,2019-09-27_16:12:59,2019-09-27_16:14:59,,,,,,,,,,,,,,,ap,002,2019_Sep_27_1612,StressSession,3.2.3,59.940610837156555,
2,green,440,1.0,,,,,,0,1,1,1,,,,,,,,,,,,,,,,,,,,,ap,002,2019_Sep_27_1612,StressSession,3.2.3,59.940610837156555,
3,green,440,1.0,,,,,,0,2,2,2,,,,,,,,,,,,,,,,,,,,,ap,002,2019_Sep_27_1612,StressSession,3.2.3,59.940610837156555,
4,green,440,1.0,,,,,,0,3,3,3,,,,,,,,,,,,,,,,,,,,,ap,002,2019_Sep_27_1612,StressSession,3.2.3,59.940610837156555,
5,green,440,1.0,,,,,,0,4,4,4,,,,,,,,,,,,,,,,,,,,,ap,002,2019_Sep_27_1612,StressSession,3.2.3,59.940610837156555,
6,green,440,1.0,,,,,,0,5,5,5,,,,,,,,,,,,,,,,,,,,,ap,002,2019_Sep_27_1612,StressSession,3.2.3,59.940610837156555,
7,green,440,1.0,,,,,,0,6,6,6,,,,,,,,,,,,,,,,,,,,,ap,002,2019_Sep_27_1612,StressSession,3.2.3,59.940610837156555,
8,green,440,1.0,,,,,,0,7,7,7,,,,,,,,,,,,,,,,,,,,,ap,002,2019_Sep_27_1612,StressSession,3.2.3,59.940610837156555,
9,green,440,1.0,,,,,,0,8,8,8,,,,,,,,,,,,,,,,,,,,,ap,002,2019_Sep_27_1612,StressSession,3.2.3,59.940610837156555,
10,green,440,1.0,,,,,,0,9,9,9,,,,,,,,,,,,,,,,,,,,,ap,002,2019_Sep_27_1612,StressSession,3.2.3,59.940610837156555,
11,green,440,1.0,,,,,,0,10,10,10,,,,,,,,,,,,,,,,,,,,,ap,002,2019_Sep_27_1612,StressSession,3.2.3,59.940610837156555,
12,green,440,1.0,,,,,,0,11,11,11,,,,,,,,,,,,,,,,,,,,,ap,002,2019_Sep_27_1612,StressSession,3.2.3,59.940610837156555,
13,green,440,1.0,,,,,,0,12,12,12,,,,,,,,,,,,,,,,,,,,,ap,002,2019_Sep_27_1612,StressSession,3.2.3,59.940610837156555,
14,green,440,1.0,,,,,,0,13,13,13,,,,,,,,,,,,,,,,,,,,,ap,002,2019_Sep_27_1612,StressSession,3.2.3,59.940610837156555,
15,green,440,1.0,,,,,,0,14,14,14,,,,,,,,,,,,,,,,,,,,,ap,002,2019_Sep_27_1612,StressSession,3.2.3,59.940610837156555,
16,green,440,1.0,,,,,,0,15,15,15,,,,,,,,,,,,,,,,,,,,,ap,002,2019_Sep_27_1612,StressSession,3.2.3,59.940610837156555,
17,green,440,1.0,,,,,,0,16,16,16,,,,,,,,,,,,,,,,,,,,,ap,002,2019_Sep_27_1612,StressSession,3.2.3,59.940610837156555,
18,green,440,1.0,,,,,,0,17,17,17,,,,,,,,,,,,,,,,,,,,,ap,002,2019_Sep_27_1612,StressSession,3.2.3,59.940610837156555,
19,green,440,1.0,,,,,,0,18,18,18,,,,,,,,,,,,,,,,,,,,,ap,002,2019_Sep_27_1612,StressSession,3.2.3,59.940610837156555,
20,green,440,1.0,,,,,,0,19,19,19,,,,,,,,,,,,,,,,,,,,,ap,002,2019_Sep_27_1612,StressSession,3.2.3,59.940610837156555,
21,green,440,1.0,,,,,,0,20,20,20,,,,,,,,,,,,,,,,,,,,,ap,002,2019_Sep_27_1612,StressSession,3.2.3,59.940610837156555,
22,green,440,1.0,,,,,,0,21,21,21,,,,,,,,,,,,,,,,,,,,,ap,002,2019_Sep_27_1612,StressSession,3.2.3,59.940610837156555,
23,green,440,1.0,,,,,,0,22,22,22,,,,,,,,,,,,,,,,,,,,,ap,002,2019_Sep_27_1612,StressSession,3.2.3,59.940610837156555,
24,green,440,1.0,,,,,,0,23,23,23,,,,,,,,,,,,,,,,,,,,,ap,002,2019_Sep_27_1612,StressSession,3.2.3,59.940610837156555,
25,green,440,1.0,,,,,,0,24,24,24,,,,,,,,,,,,,,,,,,,,,ap,002,2019_Sep_27_1612,StressSession,3.2.3,59.940610837156555,
26,green,440,1.0,,,,,,0,25,25,25,,,,,,,,,,,,,,,,,,,,,ap,002,2019_Sep_27_1612,StressSession,3.2.3,59.940610837156555,
27,green,440,1.0,,,,,,0,26,26,26,,,,,,,,,,,,,,,,,,,,,ap,002,2019_Sep_27_1612,StressSession,3.2.3,59.940610837156555,
28,green,440,1.0,,,,,,0,27,27,27,,,,,,,,,,,,,,,,,,,,,ap,002,2019_Sep_27_1612,StressSession,3.2.3,59.940610837156555,
29,green,440,1.0,,,,,,0,28,28,28,,,,,,,,,,,,,,,,,,,,,ap,002,2019_Sep_27_1612,StressSession,3.2.3,59.940610837156555,
30,green,440,1.0,,,,,,0,29,29,29,,,,,,,,,,,,,,,,,,,,,ap,002,2019_Sep_27_1612,StressSession,3.2.3,59.940610837156555,
31,green,440,1.0,,,,,,0,30,30,30,,,,,,,,,,,,,,,,,,,,,ap,002,2019_Sep_27_1612,StressSession,3.2.3,59.940610837156555,
32,green,440,1.0,,,,,,0,31,31,31,,,,,,,,,,,,,,,,,,,,,ap,002,2019_Sep_27_1612,StressSession,3.2.3,59.940610837156555,
33,green,440,1.0,,,,,,0,32,32,32,,,,,,,,,,,,,,,,,,,,,ap,002,2019_Sep_27_1612,StressSession,3.2.3,59.940610837156555,
34,green,440,1.0,,,,,,0,33,33,33,,,,,,,,,,,,,,,,,,,,,ap,002,2019_Sep_27_1612,StressSession,3.2.3,59.940610837156555,
35,green,440,1.0,,,,,,0,34,34,34,,,,,,,,,,,,,,,,,,,,,ap,002,2019_Sep_27_1612,StressSession,3.2.3,59.940610837156555,
36,green,440,1.0,,,,,,0,35,35,35,,,,,,,,,,,,,,,,,,,,,ap,002,2019_Sep_27_1612,StressSession,3.2.3,59.940610837156555,
37,green,440,1.0,,,,,,0,36,36,36,,,,,,,,,,,,,,,,,,,,,ap,002,2019_Sep_27_1612,StressSession,3.2.3,59.940610837156555,
38,green,440,1.0,,,,,,0,37,37,37,,,,,,,,,,,,,,,,,,,,,ap,002,2019_Sep_27_1612,StressSession,3.2.3,59.940610837156555,
39,green,440,1.0,,,,,,0,38,38,38,,,,,,,,,,,,,,,,,,,,,ap,002,2019_Sep_27_1612,StressSession,3.2.3,59.940610837156555,
40,green,440,1.0,,,,,,0,39,39,39,,,,,,,,,,,,,,,,,,,,,ap,002,2019_Sep_27_1612,StressSession,3.2.3,59.940610837156555,
41,green,440,1.0,,,,,,0,40,40,40,,,,,,,,,,,,,,,,,,,,,ap,002,2019_Sep_27_1612,StressSession,3.2.3,59.940610837156555,
42,green,440,1.0,,,,,,0,41,41,41,,,,,,,,,,,,,,,,,,,,,ap,002,2019_Sep_27_1612,StressSession,3.2.3,59.940610837156555,
43,green,440,1.0,,,,,,0,42,42,42,,,,,,,,,,,,,,,,,,,,,ap,002,2019_Sep_27_1612,StressSession,3.2.3,59.940610837156555,
44,green,440,1.0,,,,,,0,43,43,43,,,,,,,,,,,,,,,,,,,,,ap,002,2019_Sep_27_1612,StressSession,3.2.3,59.940610837156555,
45,green,440,1.0,,,,,,0,44,44,44,,,,,,,,,,,,,,,,,,,,,ap,002,2019_Sep_27_1612,StressSession,3.2.3,59.940610837156555,
46,green,440,1.0,,,,,,0,45,45,45,,,,,,,,,,,,,,,,,,,,,ap,002,2019_Sep_27_1612,StressSession,3.2.3,59.940610837156555,
47,green,440,1.0,,,,,,0,46,46,46,,,,,,,,,,,,,,,,,,,,,ap,002,2019_Sep_27_1612,StressSession,3.2.3,59.940610837156555,
48,green,440,1.0,,,,,,0,47,47,47,,,,,,,,,,,,,,,,,,,,,ap,002,2019_Sep_27_1612,StressSession,3.2.3,59.940610837156555,
49,green,440,1.0,,,,,,0,48,48,48,,,,,,,,,,,,,,,,,,,,,ap,002,2019_Sep_27_1612,StressSession,3.2.3,59.940610837156555,
50,green,440,1.0,,,,,,0,49,49,49,,,,,,,,,,,,,,,,,,,,,ap,002,2019_Sep_27_1612,StressSession,3.2.3,59.940610837156555,
51,green,440,1.0,,,,,,0,50,50,50,,,,,,,,,,,,,,,,,,,,,ap,002,2019_Sep_27_1612,StressSession,3.2.3,59.940610837156555,
52,green,440,1.0,,,,,,0,51,51,51,,,,,,,,,,,,,,,,,,,,,ap,002,2019_Sep_27_1612,StressSession,3.2.3,59.940610837156555,
53,green,440,1.0,,,,,,0,52,52,52,,,,,,,,,,,,,,,,,,,,,ap,002,2019_Sep_27_1612,StressSession,3.2.3,59.940610837156555,
54,green,440,1.0,,,,,,0,53,53,53,,,,,,,,,,,,,,,,,,,,,ap,002,2019_Sep_27_1612,StressSession,3.2.3,59.940610837156555,
55,green,440,1.0,,,,,,0,54,54,54,,,,,,,,,,,,,,,,,,,,,ap,002,2019_Sep_27_1612,StressSession,3.2.3,59.940610837156555,
56,green,440,1.0,,,,,,0,55,55,55,,,,,,,,,,,,,,,,,,,,,ap,002,2019_Sep_27_1612,StressSession,3.2.3,59.940610837156555,
57,green,440,1.0,,,,,,0,56,56,56,,,,,,,,,,,,,,,,,,,,,ap,002,2019_Sep_27_1612,StressSession,3.2.3,59.940610837156555,
58,green,440,1.0,,,,,,0,57,57,57,,,,,,,,,,,,,,,,,,,,,ap,002,2019_Sep_27_1612,StressSession,3.2.3,59.940610837156555,
59,green,440,1.0,,,,,,0,58,58,58,,,,,,,,,,,,,,,,,,,,,ap,002,2019_Sep_27_1612,StressSession,3.2.3,59.940610837156555,
60,green,440,1.0,,,,,,0,59,59,59,,,,,,,,,,,,,,,,,,,,,ap,002,2019_Sep_27_1612,StressSession,3.2.3,59.940610837156555,
61,green,440,1.0,,,,,,0,60,60,60,,,,,,,,,,,,,,,,,,,,,ap,002,2019_Sep_27_1612,StressSession,3.2.3,59.940610837156555,
62,green,440,1.0,,,,,,0,61,61,61,,,,,,,,,,,,,,,,,,,,,ap,002,2019_Sep_27_1612,StressSession,3.2.3,59.940610837156555,
63,green,440,1.0,,,,,,0,62,62,62,,,,,,,,,,,,,,,,,,,,,ap,002,2019_Sep_27_1612,StressSession,3.2.3,59.940610837156555,
64,green,440,1.0,,,,,,0,63,63,63,,,,,,,,,,,,,,,,,,,,,ap,002,2019_Sep_27_1612,StressSession,3.2.3,59.940610837156555,
65,green,440,1.0,,,,,,0,64,64,64,,,,,,,,,,,,,,,,,,,,,ap,002,2019_Sep_27_1612,StressSession,3.2.3,59.940610837156555,
66,green,440,1.0,,,,,,0,65,65,65,,,,,,,,,,,,,,,,,,,,,ap,002,2019_Sep_27_1612,StressSession,3.2.3,59.940610837156555,
67,green,440,1.0,,,,,,0,66,66,66,,,,,,,,,,,,,,,,,,,,,ap,002,2019_Sep_27_1612,StressSession,3.2.3,59.940610837156555,
68,green,440,1.0,,,,,,0,67,67,67,,,,,,,,,,,,,,,,,,,,,ap,002,2019_Sep_27_1612,StressSession,3.2.3,59.940610837156555,
69,green,440,1.0,,,,,,0,68,68,68,,,,,,,,,,,,,,,,,,,,,ap,002,2019_Sep_27_1612,StressSession,3.2.3,59.940610837156555,
70,green,440,1.0,,,,,,0,69,69,69,,,,,,,,,,,,,,,,,,,,,ap,002,2019_Sep_27_1612,StressSession,3.2.3,59.940610837156555,
71,green,440,1.0,,,,,,0,70,70,70,,,,,,,,,,,,,,,,,,,,,ap,002,2019_Sep_27_1612,StressSession,3.2.3,59.940610837156555,
72,green,440,1.0,,,,,,0,71,71,71,,,,,,,,,,,,,,,,,,,,,ap,002,2019_Sep_27_1612,StressSession,3.2.3,59.940610837156555,
73,green,440,1.0,,,,,,0,72,72,72,,,,,,,,,,,,,,,,,,,,,ap,002,2019_Sep_27_1612,StressSession,3.2.3,59.940610837156555,
74,green,440,1.0,,,,,,0,73,73,73,,,,,,,,,,,,,,,,,,,,,ap,002,2019_Sep_27_1612,StressSession,3.2.3,59.940610837156555,
75,green,440,1.0,,,,,,0,74,74,74,,,,,,,,,,,,,,,,,,,,,ap,002,2019_Sep_27_1612,StressSession,3.2.3,59.940610837156555,
76,green,440,1.0,,,,,,0,75,75,75,,,,,,,,,,,,,,,,,,,,,ap,002,2019_Sep_27_1612,StressSession,3.2.3,59.940610837156555,
77,green,440,1.0,,,,,,0,76,76,76,,,,,,,,,,,,,,,,,,,,,ap,002,2019_Sep_27_1612,StressSession,3.2.3,59.940610837156555,
78,green,440,1.0,,,,,,0,77,77,77,,,,,,,,,,,,,,,,,,,,,ap,002,2019_Sep_27_1612,StressSession,3.2.3,59.940610837156555,
79,green,440,1.0,,,,,,0,78,78,78,,,,,,,,,,,,,,,,,,,,,ap,002,2019_Sep_27_1612,StressSession,3.2.3,59.940610837156555,
80,green,440,1.0,,,,,,0,79,79,79,,,,,,,,,,,,,,,,,,,,,ap,002,2019_Sep_27_1612,StressSession,3.2.3,59.940610837156555,
81,green,440,1.0,,,,,,0,80,80,80,,,,,,,,,,,,,,,,,,,,,ap,002,2019_Sep_27_1612,StressSession,3.2.3,59.940610837156555,
82,green,440,1.0,,,,,,0,81,81,81,,,,,,,,,,,,,,,,,,,,,ap,002,2019_Sep_27_1612,StressSession,3.2.3,59.940610837156555,
83,green,440,1.0,,,,,,0,82,82,82,,,,,,,,,,,,,,,,,,,,,ap,002,2019_Sep_27_1612,StressSession,3.2.3,59.940610837156555,
84,green,440,1.0,,,,,,0,83,83,83,,,,,,,,,,,,,,,,,,,,,ap,002,2019_Sep_27_1612,StressSession,3.2.3,59.940610837156555,
85,green,440,1.0,,,,,,0,84,84,84,,,,,,,,,,,,,,,,,,,,,ap,002,2019_Sep_27_1612,StressSession,3.2.3,59.940610837156555,
86,green,440,1.0,,,,,,0,85,85,85,,,,,,,,,,,,,,,,,,,,,ap,002,2019_Sep_27_1612,StressSession,3.2.3,59.940610837156555,
87,green,440,1.0,,,,,,0,86,86,86,,,,,,,,,,,,,,,,,,,,,ap,002,2019_Sep_27_1612,StressSession,3.2.3,59.940610837156555,
88,green,440,1.0,,,,,,0,87,87,87,,,,,,,,,,,,,,,,,,,,,ap,002,2019_Sep_27_1612,StressSession,3.2.3,59.940610837156555,
89,green,440,1.0,,,,,,0,88,88,88,,,,,,,,,,,,,,,,,,,,,ap,002,2019_Sep_27_1612,StressSession,3.2.3,59.940610837156555,
90,green,440,1.0,,,,,,0,89,89,89,,,,,,,,,,,,,,,,,,,,,ap,002,2019_Sep_27_1612,StressSession,3.2.3,59.940610837156555,
91,green,440,1.0,,,,,,0,90,90,90,,,,,,,,,,,,,,,,,,,,,ap,002,2019_Sep_27_1612,StressSession,3.2.3,59.940610837156555,
92,green,440,1.0,,,,,,0,91,91,91,,,,,,,,,,,,,,,,,,,,,ap,002,2019_Sep_27_1612,StressSession,3.2.3,59.940610837156555,
93,green,440,1.0,,,,,,0,92,92,92,,,,,,,,,,,,,,,,,,,,,ap,002,2019_Sep_27_1612,StressSession,3.2.3,59.940610837156555,
94,green,440,1.0,,,,,,0,93,93,93,,,,,,,,,,,,,,,,,,,,,ap,002,2019_Sep_27_1612,StressSession,3.2.3,59.940610837156555,
95,green,440,1.0,,,,,,0,94,94,94,,,,,,,,,,,,,,,,,,,,,ap,002,2019_Sep_27_1612,StressSession,3.2.3,59.940610837156555,
96,green,440,1.0,,,,,,0,95,95,95,,,,,,,,,,,,,,,,,,,,,ap,002,2019_Sep_27_1612,StressSession,3.2.3,59.940610837156555,
97,green,440,1.0,,,,,,0,96,96,96,,,,,,,,,,,,,,,,,,,,,ap,002,2019_Sep_27_1612,StressSession,3.2.3,59.940610837156555,
98,green,440,1.0,,,,,,0,97,97,97,,,,,,,,,,,,,,,,,,,,,ap,002,2019_Sep_27_1612,StressSession,3.2.3,59.940610837156555,
99,green,440,1.0,,,,,,0,98,98,98,,,,,,,,,,,,,,,,,,,,,ap,002,2019_Sep_27_1612,StressSession,3.2.3,59.940610837156555,
100,green,440,1.0,,,,,,0,99,99,99,,,,,,,,,,,,,,,,,,,,,ap,002,2019_Sep_27_1612,StressSession,3.2.3,59.940610837156555,
101,green,440,1.0,,,,,,0,100,100,100,,,,,,,,,,,,,,,,,,,,,ap,002,2019_Sep_27_1612,StressSession,3.2.3,59.940610837156555,
102,green,440,1.0,,,,,,0,101,101,101,,,,,,,,,,,,,,,,,,,,,ap,002,2019_Sep_27_1612,StressSession,3.2.3,59.940610837156555,
103,green,440,1.0,,,,,,0,102,102,102,,,,,,,,,,,,,,,,,,,,,ap,002,2019_Sep_27_1612,StressSession,3.2.3,59.940610837156555,
104,green,440,1.0,,,,,,0,103,103,103,,,,,,,,,,,,,,,,,,,,,ap,002,2019_Sep_27_1612,StressSession,3.2.3,59.940610837156555,
105,green,440,1.0,,,,,,0,104,104,104,,,,,,,,,,,,,,,,,,,,,ap,002,2019_Sep_27_1612,StressSession,3.2.3,59.940610837156555,
106,green,440,1.0,,,,,,0,105,105,105,,,,,,,,,,,,,,,,,,,,,ap,002,2019_Sep_27_1612,StressSession,3.2.3,59.940610837156555,
107,green,440,1.0,,,,,,0,106,106,106,,,,,,,,,,,,,,,,,,,,,ap,002,2019_Sep_27_1612,StressSession,3.2.3,59.940610837156555,
108,green,440,1.0,,,,,,0,107,107,107,,,,,,,,,,,,,,,,,,,,,ap,002,2019_Sep_27_1612,StressSession,3.2.3,59.940610837156555,
109,green,440,1.0,,,,,,0,108,108,108,,,,,,,,,,,,,,,,,,,,,ap,002,2019_Sep_27_1612,StressSession,3.2.3,59.940610837156555,
110,green,440,1.0,,,,,,0,109,109,109,,,,,,,,,,,,,,,,,,,,,ap,002,2019_Sep_27_1612,StressSession,3.2.3,59.940610837156555,
111,green,440,1.0,,,,,,0,110,110,110,,,,,,,,,,,,,,,,,,,,,ap,002,2019_Sep_27_1612,StressSession,3.2.3,59.940610837156555,
112,green,440,1.0,,,,,,0,111,111,111,,,,,,,,,,,,,,,,,,,,,ap,002,2019_Sep_27_1612,StressSession,3.2.3,59.940610837156555,
113,green,440,1.0,,,,,,0,112,112,112,,,,,,,,,,,,,,,,,,,,,ap,002,2019_Sep_27_1612,StressSession,3.2.3,59.940610837156555,
114,green,440,1.0,,,,,,0,113,113,113,,,,,,,,,,,,,,,,,,,,,ap,002,2019_Sep_27_1612,StressSession,3.2.3,59.940610837156555,
115,green,440,1.0,,,,,,0,114,114,114,,,,,,,,,,,,,,,,,,,,,ap,002,2019_Sep_27_1612,StressSession,3.2.3,59.940610837156555,
116,green,440,1.0,,,,,,0,115,115,115,,,,,,,,,,,,,,,,,,,,,ap,002,2019_Sep_27_1612,StressSession,3.2.3,59.940610837156555,
117,green,440,1.0,,,,,,0,116,116,116,,,,,,,,,,,,,,,,,,,,,ap,002,2019_Sep_27_1612,StressSession,3.2.3,59.940610837156555,
118,green,440,1.0,,,,,,0,117,117,117,,,,,,,,,,,,,,,,,,,,,ap,002,2019_Sep_27_1612,StressSession,3.2.3,59.940610837156555,
119,green,440,1.0,,,,,,0,118,118,118,,,,,,,,,,,,,,,,,,,,,ap,002,2019_Sep_27_1612,StressSession,3.2.3,59.940610837156555,
120,green,440,1.0,,,,,,0,119,119,119,,,,,,,,,,,,,,,,,,,,,ap,002,2019_Sep_27_1612,StressSession,3.2.3,59.940610837156555,
121,green,440,1.0,,,,,,0,120,120,120,,,,,,,,,,,,,,,,,,,,,ap,002,2019_Sep_27_1612,StressSession,3.2.3,59.940610837156555,
122,green,440,1.0,,,,,,0,121,121,121,,,,,,,,,,,,,,,,,,,,,ap,002,2019_Sep_27_1612,StressSession,3.2.3,59.940610837156555,
123,green,440,1.0,,,,,,0,122,122,122,,,,,,,,,,,,,,,,,,,,,ap,002,2019_Sep_27_1612,StressSession,3.2.3,59.940610837156555,
124,green,440,1.0,,,,,,0,123,123,123,,,,,,,,,,,,,,,,,,,,,ap,002,2019_Sep_27_1612,StressSession,3.2.3,59.940610837156555,
125,green,440,1.0,,,,,,0,124,124,124,,,,,,,,,,,,,,,,,,,,,ap,002,2019_Sep_27_1612,StressSession,3.2.3,59.940610837156555,
126,green,440,1.0,,,,,,0,125,125,125,,,,,,,,,,,,,,,,,,,,,ap,002,2019_Sep_27_1612,StressSession,3.2.3,59.940610837156555,
127,green,440,1.0,,,,,,0,126,126,126,,,,,,,,,,,,,,,,,,,,,ap,002,2019_Sep_27_1612,StressSession,3.2.3,59.940610837156555,
128,green,440,1.0,,,,,,0,127,127,127,,,,,,,,,,,,,,,,,,,,,ap,002,2019_Sep_27_1612,StressSession,3.2.3,59.940610837156555,
129,green,440,1.0,,,,,,0,128,128,128,,,,,,,,,,,,,,,,,,,,,ap,002,2019_Sep_27_1612,StressSession,3.2.3,59.940610837156555,
130,green,440,1.0,,,,,,0,129,129,129,,,,,,,,,,,,,,,,,,,,,ap,002,2019_Sep_27_1612,StressSession,3.2.3,59.940610837156555,
131,green,440,1.0,,,,,,0,130,130,130,,,,,,,,,,,,,,,,,,,,,ap,002,2019_Sep_27_1612,StressSession,3.2.3,59.940610837156555,
132,green,440,1.0,,,,,,0,131,131,131,,,,,,,,,,,,,,,,,,,,,ap,002,2019_Sep_27_1612,StressSession,3.2.3,59.940610837156555,
133,green,440,1.0,,,,,,0,132,132,132,,,,,,,,,,,,,,,,,,,,,ap,002,2019_Sep_27_1612,StressSession,3.2.3,59.940610837156555,
134,green,440,1.0,,,,,,0,133,133,133,,,,,,,,,,,,,,,,,,,,,ap,002,2019_Sep_27_1612,StressSession,3.2.3,59.940610837156555,
135,green,440,1.0,,,,,,0,134,134,134,,,,,,,,,,,,,,,,,,,,,ap,002,2019_Sep_27_1612,StressSession,3.2.3,59.940610837156555,
136,green,440,1.0,,,,,,0,135,135,135,,,,,,,,,,,,,,,,,,,,,ap,002,2019_Sep_27_1612,StressSession,3.2.3,59.940610837156555,
137,green,440,1.0,,,,,,0,136,136,136,,,,,,,,,,,,,,,,,,,,,ap,002,2019_Sep_27_1612,StressSession,3.2.3,59.940610837156555,
138,green,440,1.0,,,,,,0,137,137,137,,,,,,,,,,,,,,,,,,,,,ap,002,2019_Sep_27_1612,StressSession,3.2.3,59.940610837156555,
139,green,440,1.0,,,,,,0,138,138,138,,,,,,,,,,,,,,,,,,,,,ap,002,2019_Sep_27_1612,StressSession,3.2.3,59.940610837156555,
140,green,440,1.0,,,,,,0,139,139,139,,,,,,,,,,,,,,,,,,,,,ap,002,2019_Sep_27_1612,StressSession,3.2.3,59.940610837156555,
141,green,440,1.0,,,,,,0,140,140,140,,,,,,,,,,,,,,,,,,,,,ap,002,2019_Sep_27_1612,StressSession,3.2.3,59.940610837156555,
142,green,440,1.0,,,,,,0,141,141,141,,,,,,,,,,,,,,,,,,,,,ap,002,2019_Sep_27_1612,StressSession,3.2.3,59.940610837156555,
143,green,440,1.0,,,,,,0,142,142,142,,,,,,,,,,,,,,,,,,,,,ap,002,2019_Sep_27_1612,StressSession,3.2.3,59.940610837156555,
144,green,440,1.0,,,,,,0,143,143,143,,,,,,,,,,,,,,,,,,,,,ap,002,2019_Sep_27_1612,StressSession,3.2.3,59.940610837156555,
145,green,440,1.0,,,,,,0,144,144,144,,,,,,,,,,,,,,,,,,,,,ap,002,2019_Sep_27_1612,StressSession,3.2.3,59.940610837156555,
146,green,440,1.0,,,,,,0,145,145,145,,,,,,,,,,,,,,,,,,,,,ap,002,2019_Sep_27_1612,StressSession,3.2.3,59.940610837156555,
147,green,440,1.0,,,,,,0,146,146,146,,,,,,,,,,,,,,,,,,,,,ap,002,2019_Sep_27_1612,StressSession,3.2.3,59.940610837156555,
148,green,440,1.0,,,,,,0,147,147,147,,,,,,,,,,,,,,,,,,,,,ap,002,2019_Sep_27_1612,StressSession,3.2.3,59.940610837156555,
149,green,440,1.0,,,,,,0,148,148,148,,,,,,,,,,,,,,,,,,,,,ap,002,2019_Sep_27_1612,StressSession,3.2.3,59.940610837156555,
150,green,440,1.0,,,,,,0,149,149,149,,,,,,,,,,,,,,,,,,,,,ap,002,2019_Sep_27_1612,StressSession,3.2.3,59.940610837156555,
151,green,440,1.0,,,,,,0,150,150,150,,,,,,,,,,,,,,,,,,,,,ap,002,2019_Sep_27_1612,StressSession,3.2.3,59.940610837156555,
152,green,440,1.0,,,,,,0,151,151,151,,,,,,,,,,,,,,,,,,,,,ap,002,2019_Sep_27_1612,StressSession,3.2.3,59.940610837156555,
153,green,440,1.0,,,,,,0,152,152,152,,,,,,,,,,,,,,,,,,,,,ap,002,2019_Sep_27_1612,StressSession,3.2.3,59.940610837156555,
154,green,440,1.0,,,,,,0,153,153,153,,,,,,,,,,,,,,,,,,,,,ap,002,2019_Sep_27_1612,StressSession,3.2.3,59.940610837156555,
155,green,440,1.0,,,,,,0,154,154,154,,,,,,,,,,,,,,,,,,,,,ap,002,2019_Sep_27_1612,StressSession,3.2.3,59.940610837156555,
156,green,440,1.0,,,,,,0,155,155,155,,,,,,,,,,,,,,,,,,,,,ap,002,2019_Sep_27_1612,StressSession,3.2.3,59.940610837156555,
157,green,440,1.0,,,,,,0,156,156,156,,,,,,,,,,,,,,,,,,,,,ap,002,2019_Sep_27_1612,StressSession,3.2.3,59.940610837156555,
158,green,440,1.0,,,,,,0,157,157,157,,,,,,,,,,,,,,,,,,,,,ap,002,2019_Sep_27_1612,StressSession,3.2.3,59.940610837156555,
159,green,440,1.0,,,,,,0,158,158,158,,,,,,,,,,,,,,,,,,,,,ap,002,2019_Sep_27_1612,StressSession,3.2.3,59.940610837156555,
160,green,440,1.0,,,,,,0,159,159,159,,,,,,,,,,,,,,,,,,,,,ap,002,2019_Sep_27_1612,StressSession,3.2.3,59.940610837156555,
161,green,440,1.0,,,,,,0,160,160,160,,,,,,,,,,,,,,,,,,,,,ap,002,2019_Sep_27_1612,StressSession,3.2.3,59.940610837156555,
162,green,440,1.0,,,,,,0,161,161,161,,,,,,,,,,,,,,,,,,,,,ap,002,2019_Sep_27_1612,StressSession,3.2.3,59.940610837156555,
163,green,440,1.0,,,,,,0,162,162,162,,,,,,,,,,,,,,,,,,,,,ap,002,2019_Sep_27_1612,StressSession,3.2.3,59.940610837156555,
164,green,440,1.0,,,,,,0,163,163,163,,,,,,,,,,,,,,,,,,,,,ap,002,2019_Sep_27_1612,StressSession,3.2.3,59.940610837156555,
165,green,440,1.0,,,,,,0,164,164,164,,,,,,,,,,,,,,,,,,,,,ap,002,2019_Sep_27_1612,StressSession,3.2.3,59.940610837156555,
166,green,440,1.0,,,,,,0,165,165,165,,,,,,,,,,,,,,,,,,,,,ap,002,2019_Sep_27_1612,StressSession,3.2.3,59.940610837156555,
167,green,440,1.0,,,,,,0,166,166,166,,,,,,,,,,,,,,,,,,,,,ap,002,2019_Sep_27_1612,StressSession,3.2.3,59.940610837156555,
168,green,440,1.0,,,,,,0,167,167,167,,,,,,,,,,,,,,,,,,,,,ap,002,2019_Sep_27_1612,StressSession,3.2.3,59.940610837156555,
169,green,440,1.0,,,,,,0,168,168,168,,,,,,,,,,,,,,,,,,,,,ap,002,2019_Sep_27_1612,StressSession,3.2.3,59.940610837156555,
170,green,440,1.0,,,,,,0,169,169,169,,,,,,,,,,,,,,,,,,,,,ap,002,2019_Sep_27_1612,StressSession,3.2.3,59.940610837156555,
171,green,440,1.0,,,,,,0,170,170,170,,,,,,,,,,,,,,,,,,,,,ap,002,2019_Sep_27_1612,StressSession,3.2.3,59.940610837156555,
172,green,440,1.0,,,,,,0,171,171,171,,,,,,,,,,,,,,,,,,,,,ap,002,2019_Sep_27_1612,StressSession,3.2.3,59.940610837156555,
173,green,440,1.0,,,,,,0,172,172,172,,,,,,,,,,,,,,,,,,,,,ap,002,2019_Sep_27_1612,StressSession,3.2.3,59.940610837156555,
174,green,440,1.0,,,,,,0,173,173,173,,,,,,,,,,,,,,,,,,,,,ap,002,2019_Sep_27_1612,StressSession,3.2.3,59.940610837156555,
175,green,440,1.0,,,,,,0,174,174,174,,,,,,,,,,,,,,,,,,,,,ap,002,2019_Sep_27_1612,StressSession,3.2.3,59.940610837156555,
176,green,440,1.0,,,,,,0,175,175,175,,,,,,,,,,,,,,,,,,,,,ap,002,2019_Sep_27_1612,StressSession,3.2.3,59.940610837156555,
177,green,440,1.0,,,,,,0,176,176,176,,,,,,,,,,,,,,,,,,,,,ap,002,2019_Sep_27_1612,StressSession,3.2.3,59.940610837156555,
178,green,440,1.0,,,,,,0,177,177,177,,,,,,,,,,,,,,,,,,,,,ap,002,2019_Sep_27_1612,StressSession,3.2.3,59.940610837156555,
179,green,440,1.0,,,,,,0,178,178,178,,,,,,,,,,,,,,,,,,,,,ap,002,2019_Sep_27_1612,StressSession,3.2.3,59.940610837156555,
180,yellow,880,0.5,,,,,,0,179,179,179,,,,,,,,,,,,,,,,,,,,,ap,002,2019_Sep_27_1612,StressSession,3.2.3,59.940610837156555,
181,yellow,880,0.5,,,,,,0,180,180,180,,,,,,,,,,,,,,,,,,,,,ap,002,2019_Sep_27_1612,StressSession,3.2.3,59.940610837156555,
182,yellow,880,0.5,,,,,,0,181,181,181,,,,,,,,,,,,,,,,,,,,,ap,002,2019_Sep_27_1612,StressSession,3.2.3,59.940610837156555,
183,yellow,880,0.5,,,,,,0,182,182,182,,,,,,,,,,,,,,,,,,,,,ap,002,2019_Sep_27_1612,StressSession,3.2.3,59.940610837156555,
184,yellow,880,0.5,,,,,,0,183,183,183,,,,,,,,,,,,,,,,,,,,,ap,002,2019_Sep_27_1612,StressSession,3.2.3,59.940610837156555,
185,yellow,880,0.5,,,,,,0,184,184,184,,,,,,,,,,,,,,,,,,,,,ap,002,2019_Sep_27_1612,StressSession,3.2.3,59.940610837156555,
186,yellow,880,0.5,,,,,,0,185,185,185,,,,,,,,,,,,,,,,,,,,,ap,002,2019_Sep_27_1612,StressSession,3.2.3,59.940610837156555,
187,yellow,880,0.5,,,,,,0,186,186,186,,,,,,,,,,,,,,,,,,,,,ap,002,2019_Sep_27_1612,StressSession,3.2.3,59.940610837156555,
188,yellow,880,0.5,,,,,,0,187,187,187,,,,,,,,,,,,,,,,,,,,,ap,002,2019_Sep_27_1612,StressSession,3.2.3,59.940610837156555,
189,yellow,880,0.5,,,,,,0,188,188,188,,,,,,,,,,,,,,,,,,,,,ap,002,2019_Sep_27_1612,StressSession,3.2.3,59.940610837156555,
190,yellow,880,0.5,,,,,,0,189,189,189,,,,,,,,,,,,,,,,,,,,,ap,002,2019_Sep_27_1612,StressSession,3.2.3,59.940610837156555,
191,yellow,880,0.5,,,,,,0,190,190,190,,,,,,,,,,,,,,,,,,,,,ap,002,2019_Sep_27_1612,StressSession,3.2.3,59.940610837156555,
192,yellow,880,0.5,,,,,,0,191,191,191,,,,,,,,,,,,,,,,,,,,,ap,002,2019_Sep_27_1612,StressSession,3.2.3,59.940610837156555,
193,yellow,880,0.5,,,,,,0,192,192,192,,,,,,,,,,,,,,,,,,,,,ap,002,2019_Sep_27_1612,StressSession,3.2.3,59.940610837156555,
194,yellow,880,0.5,,,,,,0,193,193,193,,,,,,,,,,,,,,,,,,,,,ap,002,2019_Sep_27_1612,StressSession,3.2.3,59.940610837156555,
195,yellow,880,0.5,,,,,,0,194,194,194,,,,,,,,,,,,,,,,,,,,,ap,002,2019_Sep_27_1612,StressSession,3.2.3,59.940610837156555,
196,yellow,880,0.5,,,,,,0,195,195,195,,,,,,,,,,,,,,,,,,,,,ap,002,2019_Sep_27_1612,StressSession,3.2.3,59.940610837156555,
197,yellow,880,0.5,,,,,,0,196,196,196,,,,,,,,,,,,,,,,,,,,,ap,002,2019_Sep_27_1612,StressSession,3.2.3,59.940610837156555,
198,yellow,880,0.5,,,,,,0,197,197,197,,,,,,,,,,,,,,,,,,,,,ap,002,2019_Sep_27_1612,StressSession,3.2.3,59.940610837156555,
199,yellow,880,0.5,,,,,,0,198,198,198,,,,,,,,,,,,,,,,,,,,,ap,002,2019_Sep_27_1612,StressSession,3.2.3,59.940610837156555,
200,yellow,880,0.5,,,,,,0,199,199,199,,,,,,,,,,,,,,,,,,,,,ap,002,2019_Sep_27_1612,StressSession,3.2.3,59.940610837156555,
201,yellow,880,0.5,,,,,,0,200,200,200,,,,,,,,,,,,,,,,,,,,,ap,002,2019_Sep_27_1612,StressSession,3.2.3,59.940610837156555,
202,yellow,880,0.5,,,,,,0,201,201,201,,,,,,,,,,,,,,,,,,,,,ap,002,2019_Sep_27_1612,StressSession,3.2.3,59.940610837156555,
203,yellow,880,0.5,,,,,,0,202,202,202,,,,,,,,,,,,,,,,,,,,,ap,002,2019_Sep_27_1612,StressSession,3.2.3,59.940610837156555,
204,yellow,880,0.5,,,,,,0,203,203,203,,,,,,,,,,,,,,,,,,,,,ap,002,2019_Sep_27_1612,StressSession,3.2.3,59.940610837156555,
205,yellow,880,0.5,,,,,,0,204,204,204,,,,,,,,,,,,,,,,,,,,,ap,002,2019_Sep_27_1612,StressSession,3.2.3,59.940610837156555,
206,yellow,880,0.5,,,,,,0,205,205,205,,,,,,,,,,,,,,,,,,,,,ap,002,2019_Sep_27_1612,StressSession,3.2.3,59.940610837156555,
207,yellow,880,0.5,,,,,,0,206,206,206,,,,,,,,,,,,,,,,,,,,,ap,002,2019_Sep_27_1612,StressSession,3.2.3,59.940610837156555,
208,yellow,880,0.5,,,,,,0,207,207,207,,,,,,,,,,,,,,,,,,,,,ap,002,2019_Sep_27_1612,StressSession,3.2.3,59.940610837156555,
209,yellow,880,0.5,,,,,,0,208,208,208,,,,,,,,,,,,,,,,,,,,,ap,002,2019_Sep_27_1612,StressSession,3.2.3,59.940610837156555,
210,yellow,880,0.5,,,,,,0,209,209,209,,,,,,,,,,,,,,,,,,,,,ap,002,2019_Sep_27_1612,StressSession,3.2.3,59.940610837156555,
211,yellow,880,0.5,,,,,,0,210,210,210,,,,,,,,,,,,,,,,,,,,,ap,002,2019_Sep_27_1612,StressSession,3.2.3,59.940610837156555,
212,yellow,880,0.5,,,,,,0,211,211,211,,,,,,,,,,,,,,,,,,,,,ap,002,2019_Sep_27_1612,StressSession,3.2.3,59.940610837156555,
213,yellow,880,0.5,,,,,,0,212,212,212,,,,,,,,,,,,,,,,,,,,,ap,002,2019_Sep_27_1612,StressSession,3.2.3,59.940610837156555,
214,yellow,880,0.5,,,,,,0,213,213,213,,,,,,,,,,,,,,,,,,,,,ap,002,2019_Sep_27_1612,StressSession,3.2.3,59.940610837156555,
215,yellow,880,0.5,,,,,,0,214,214,214,,,,,,,,,,,,,,,,,,,,,ap,002,2019_Sep_27_1612,StressSession,3.2.3,59.940610837156555,
216,yellow,880,0.5,,,,,,0,215,215,215,,,,,,,,,,,,,,,,,,,,,ap,002,2019_Sep_27_1612,StressSession,3.2.3,59.940610837156555,
217,yellow,880,0.5,,,,,,0,216,216,216,,,,,,,,,,,,,,,,,,,,,ap,002,2019_Sep_27_1612,StressSession,3.2.3,59.940610837156555,
218,yellow,880,0.5,,,,,,0,217,217,217,,,,,,,,,,,,,,,,,,,,,ap,002,2019_Sep_27_1612,StressSession,3.2.3,59.940610837156555,
219,yellow,880,0.5,,,,,,0,218,218,218,,,,,,,,,,,,,,,,,,,,,ap,002,2019_Sep_27_1612,StressSession,3.2.3,59.940610837156555,
220,yellow,880,0.5,,,,,,0,219,219,219,,,,,,,,,,,,,,,,,,,,,ap,002,2019_Sep_27_1612,StressSession,3.2.3,59.940610837156555,
221,yellow,880,0.5,,,,,,0,220,220,220,,,,,,,,,,,,,,,,,,,,,ap,002,2019_Sep_27_1612,StressSession,3.2.3,59.940610837156555,
222,yellow,880,0.5,,,,,,0,221,221,221,,,,,,,,,,,,,,,,,,,,,ap,002,2019_Sep_27_1612,StressSession,3.2.3,59.940610837156555,
223,yellow,880,0.5,,,,,,0,222,222,222,,,,,,,,,,,,,,,,,,,,,ap,002,2019_Sep_27_1612,StressSession,3.2.3,59.940610837156555,
224,yellow,880,0.5,,,,,,0,223,223,223,,,,,,,,,,,,,,,,,,,,,ap,002,2019_Sep_27_1612,StressSession,3.2.3,59.940610837156555,
225,yellow,880,0.5,,,,,,0,224,224,224,,,,,,,,,,,,,,,,,,,,,ap,002,2019_Sep_27_1612,StressSession,3.2.3,59.940610837156555,
226,yellow,880,0.5,,,,,,0,225,225,225,,,,,,,,,,,,,,,,,,,,,ap,002,2019_Sep_27_1612,StressSession,3.2.3,59.940610837156555,
227,yellow,880,0.5,,,,,,0,226,226,226,,,,,,,,,,,,,,,,,,,,,ap,002,2019_Sep_27_1612,StressSession,3.2.3,59.940610837156555,
228,yellow,880,0.5,,,,,,0,227,227,227,,,,,,,,,,,,,,,,,,,,,ap,002,2019_Sep_27_1612,StressSession,3.2.3,59.940610837156555,
229,yellow,880,0.5,,,,,,0,228,228,228,,,,,,,,,,,,,,,,,,,,,ap,002,2019_Sep_27_1612,StressSession,3.2.3,59.940610837156555,
230,yellow,880,0.5,,,,,,0,229,229,229,,,,,,,,,,,,,,,,,,,,,ap,002,2019_Sep_27_1612,StressSession,3.2.3,59.940610837156555,
231,yellow,880,0.5,,,,,,0,230,230,230,,,,,,,,,,,,,,,,,,,,,ap,002,2019_Sep_27_1612,StressSession,3.2.3,59.940610837156555,
232,yellow,880,0.5,,,,,,0,231,231,231,,,,,,,,,,,,,,,,,,,,,ap,002,2019_Sep_27_1612,StressSession,3.2.3,59.940610837156555,
233,yellow,880,0.5,,,,,,0,232,232,232,,,,,,,,,,,,,,,,,,,,,ap,002,2019_Sep_27_1612,StressSession,3.2.3,59.940610837156555,
234,yellow,880,0.5,,,,,,0,233,233,233,,,,,,,,,,,,,,,,,,,,,ap,002,2019_Sep_27_1612,StressSession,3.2.3,59.940610837156555,
235,yellow,880,0.5,,,,,,0,234,234,234,,,,,,,,,,,,,,,,,,,,,ap,002,2019_Sep_27_1612,StressSession,3.2.3,59.940610837156555,
236,yellow,880,0.5,,,,,,0,235,235,235,,,,,,,,,,,,,,,,,,,,,ap,002,2019_Sep_27_1612,StressSession,3.2.3,59.940610837156555,
237,yellow,880,0.5,,,,,,0,236,236,236,,,,,,,,,,,,,,,,,,,,,ap,002,2019_Sep_27_1612,StressSession,3.2.3,59.940610837156555,
238,yellow,880,0.5,,,,,,0,237,237,237,,,,,,,,,,,,,,,,,,,,,ap,002,2019_Sep_27_1612,StressSession,3.2.3,59.940610837156555,
239,yellow,880,0.5,,,,,,0,238,238,238,,,,,,,,,,,,,,,,,,,,,ap,002,2019_Sep_27_1612,StressSession,3.2.3,59.940610837156555,
240,red,1760,0.5,,,,,,0,239,239,239,,,,,,,,,,,,,,,,,,,,,ap,002,2019_Sep_27_1612,StressSession,3.2.3,59.940610837156555,
241,red,1760,0.5,,,,,,0,240,240,240,,,,,,,,,,,,,,,,,,,,,ap,002,2019_Sep_27_1612,StressSession,3.2.3,59.940610837156555,
242,red,1760,0.5,,,,,,0,241,241,241,,,,,,,,,,,,,,,,,,,,,ap,002,2019_Sep_27_1612,StressSession,3.2.3,59.940610837156555,
243,red,1760,0.5,,,,,,0,242,242,242,,,,,,,,,,,,,,,,,,,,,ap,002,2019_Sep_27_1612,StressSession,3.2.3,59.940610837156555,
244,red,1760,0.5,,,,,,0,243,243,243,,,,,,,,,,,,,,,,,,,,,ap,002,2019_Sep_27_1612,StressSession,3.2.3,59.940610837156555,
245,red,1760,0.5,,,,,,0,244,244,244,,,,,,,,,,,,,,,,,,,,,ap,002,2019_Sep_27_1612,StressSession,3.2.3,59.940610837156555,
246,red,1760,0.5,,,,,,0,245,245,245,,,,,,,,,,,,,,,,,,,,,ap,002,2019_Sep_27_1612,StressSession,3.2.3,59.940610837156555,
247,red,1760,0.5,,,,,,0,246,246,246,,,,,,,,,,,,,,,,,,,,,ap,002,2019_Sep_27_1612,StressSession,3.2.3,59.940610837156555,
248,red,1760,0.5,,,,,,0,247,247,247,,,,,,,,,,,,,,,,,,,,,ap,002,2019_Sep_27_1612,StressSession,3.2.3,59.940610837156555,
249,red,1760,0.5,,,,,,0,248,248,248,,,,,,,,,,,,,,,,,,,,,ap,002,2019_Sep_27_1612,StressSession,3.2.3,59.940610837156555,
250,red,1760,0.5,,,,,,0,249,249,249,,,,,,,,,,,,,,,,,,,,,ap,002,2019_Sep_27_1612,StressSession,3.2.3,59.940610837156555,
251,red,1760,0.5,,,,,,0,250,250,250,,,,,,,,,,,,,,,,,,,,,ap,002,2019_Sep_27_1612,StressSession,3.2.3,59.940610837156555,
252,red,1760,0.5,,,,,,0,251,251,251,,,,,,,,,,,,,,,,,,,,,ap,002,2019_Sep_27_1612,StressSession,3.2.3,59.940610837156555,
253,red,1760,0.5,,,,,,0,252,252,252,,,,,,,,,,,,,,,,,,,,,ap,002,2019_Sep_27_1612,StressSession,3.2.3,59.940610837156555,
254,red,1760,0.5,,,,,,0,253,253,253,,,,,,,,,,,,,,,,,,,,,ap,002,2019_Sep_27_1612,StressSession,3.2.3,59.940610837156555,
255,red,1760,0.5,,,,,,0,254,254,254,,,,,,,,,,,,,,,,,,,,,ap,002,2019_Sep_27_1612,StressSession,3.2.3,59.940610837156555,
256,red,1760,0.5,,,,,,0,255,255,255,,,,,,,,,,,,,,,,,,,,,ap,002,2019_Sep_27_1612,StressSession,3.2.3,59.940610837156555,
257,red,1760,0.5,,,,,,0,256,256,256,,,,,,,,,,,,,,,,,,,,,ap,002,2019_Sep_27_1612,StressSession,3.2.3,59.940610837156555,
258,red,1760,0.5,,,,,,0,257,257,257,,,,,,,,,,,,,,,,,,,,,ap,002,2019_Sep_27_1612,StressSession,3.2.3,59.940610837156555,
259,red,1760,0.5,,,,,,0,258,258,258,,,,,,,,,,,,,,,,,,,,,ap,002,2019_Sep_27_1612,StressSession,3.2.3,59.940610837156555,
260,red,1760,0.5,,,,,,0,259,259,259,,,,,,,,,,,,,,,,,,,,,ap,002,2019_Sep_27_1612,StressSession,3.2.3,59.940610837156555,
261,red,1760,0.5,,,,,,0,260,260,260,,,,,,,,,,,,,,,,,,,,,ap,002,2019_Sep_27_1612,StressSession,3.2.3,59.940610837156555,
262,red,1760,0.5,,,,,,0,261,261,261,,,,,,,,,,,,,,,,,,,,,ap,002,2019_Sep_27_1612,StressSession,3.2.3,59.940610837156555,
263,red,1760,0.5,,,,,,0,262,262,262,,,,,,,,,,,,,,,,,,,,,ap,002,2019_Sep_27_1612,StressSession,3.2.3,59.940610837156555,
264,red,1760,0.5,,,,,,0,263,263,263,,,,,,,,,,,,,,,,,,,,,ap,002,2019_Sep_27_1612,StressSession,3.2.3,59.940610837156555,
265,red,1760,0.5,,,,,,0,264,264,264,,,,,,,,,,,,,,,,,,,,,ap,002,2019_Sep_27_1612,StressSession,3.2.3,59.940610837156555,
266,red,1760,0.5,,,,,,0,265,265,265,,,,,,,,,,,,,,,,,,,,,ap,002,2019_Sep_27_1612,StressSession,3.2.3,59.940610837156555,
267,red,1760,0.5,,,,,,0,266,266,266,,,,,,,,,,,,,,,,,,,,,ap,002,2019_Sep_27_1612,StressSession,3.2.3,59.940610837156555,
268,red,1760,0.5,,,,,,0,267,267,267,,,,,,,,,,,,,,,,,,,,,ap,002,2019_Sep_27_1612,StressSession,3.2.3,59.940610837156555,
269,red,1760,0.5,,,,,,0,268,268,268,,,,,,,,,,,,,,,,,,,,,ap,002,2019_Sep_27_1612,StressSession,3.2.3,59.940610837156555,
270,red,1760,0.5,,,,,,0,269,269,269,,,,,,,,,,,,,,,,,,,,,ap,002,2019_Sep_27_1612,StressSession,3.2.3,59.940610837156555,
271,red,1760,0.5,,,,,,0,270,270,270,,,,,,,,,,,,,,,,,,,,,ap,002,2019_Sep_27_1612,StressSession,3.2.3,59.940610837156555,
272,red,1760,0.5,,,,,,0,271,271,271,,,,,,,,,,,,,,,,,,,,,ap,002,2019_Sep_27_1612,StressSession,3.2.3,59.940610837156555,
273,red,1760,0.5,,,,,,0,272,272,272,,,,,,,,,,,,,,,,,,,,,ap,002,2019_Sep_27_1612,StressSession,3.2.3,59.940610837156555,
274,red,1760,0.5,,,,,,0,273,273,273,,,,,,,,,,,,,,,,,,,,,ap,002,2019_Sep_27_1612,StressSession,3.2.3,59.940610837156555,
275,red,1760,0.5,,,,,,0,274,274,274,,,,,,,,,,,,,,,,,,,,,ap,002,2019_Sep_27_1612,StressSession,3.2.3,59.940610837156555,
276,red,1760,0.5,,,,,,0,275,275,275,,,,,,,,,,,,,,,,,,,,,ap,002,2019_Sep_27_1612,StressSession,3.2.3,59.940610837156555,
277,red,1760,0.5,,,,,,0,276,276,276,,,,,,,,,,,,,,,,,,,,,ap,002,2019_Sep_27_1612,StressSession,3.2.3,59.940610837156555,
278,red,1760,0.5,,,,,,0,277,277,277,,,,,,,,,,,,,,,,,,,,,ap,002,2019_Sep_27_1612,StressSession,3.2.3,59.940610837156555,
279,red,1760,0.5,,,,,,0,278,278,278,,,,,,,,,,,,,,,,,,,,,ap,002,2019_Sep_27_1612,StressSession,3.2.3,59.940610837156555,
280,red,1760,0.5,,,,,,0,279,279,279,,,,,,,,,,,,,,,,,,,,,ap,002,2019_Sep_27_1612,StressSession,3.2.3,59.940610837156555,
281,red,1760,0.5,,,,,,0,280,280,280,,,,,,,,,,,,,,,,,,,,,ap,002,2019_Sep_27_1612,StressSession,3.2.3,59.940610837156555,
282,red,1760,0.5,,,,,,0,281,281,281,,,,,,,,,,,,,,,,,,,,,ap,002,2019_Sep_27_1612,StressSession,3.2.3,59.940610837156555,
283,red,1760,0.5,,,,,,0,282,282,282,,,,,,,,,,,,,,,,,,,,,ap,002,2019_Sep_27_1612,StressSession,3.2.3,59.940610837156555,
284,red,1760,0.5,,,,,,0,283,283,283,,,,,,,,,,,,,,,,,,,,,ap,002,2019_Sep_27_1612,StressSession,3.2.3,59.940610837156555,
285,red,1760,0.5,,,,,,0,284,284,284,,,,,,,,,,,,,,,,,,,,,ap,002,2019_Sep_27_1612,StressSession,3.2.3,59.940610837156555,
286,red,1760,0.5,,,,,,0,285,285,285,,,,,,,,,,,,,,,,,,,,,ap,002,2019_Sep_27_1612,StressSession,3.2.3,59.940610837156555,
287,red,1760,0.5,,,,,,0,286,286,286,,,,,,,,,,,,,,,,,,,,,ap,002,2019_Sep_27_1612,StressSession,3.2.3,59.940610837156555,
288,red,1760,0.5,,,,,,0,287,287,287,,,,,,,,,,,,,,,,,,,,,ap,002,2019_Sep_27_1612,StressSession,3.2.3,59.940610837156555,
289,red,1760,0.5,,,,,,0,288,288,288,,,,,,,,,,,,,,,,,,,,,ap,002,2019_Sep_27_1612,StressSession,3.2.3,59.940610837156555,
290,red,1760,0.5,,,,,,0,289,289,289,,,,,,,,,,,,,,,,,,,,,ap,002,2019_Sep_27_1612,StressSession,3.2.3,59.940610837156555,
291,red,1760,0.5,,,,,,0,290,290,290,,,,,,,,,,,,,,,,,,,,,ap,002,2019_Sep_27_1612,StressSession,3.2.3,59.940610837156555,
292,red,1760,0.5,,,,,,0,291,291,291,,,,,,,,,,,,,,,,,,,,,ap,002,2019_Sep_27_1612,StressSession,3.2.3,59.940610837156555,
293,red,1760,0.5,,,,,,0,292,292,292,,,,,,,,,,,,,,,,,,,,,ap,002,2019_Sep_27_1612,StressSession,3.2.3,59.940610837156555,
294,red,1760,0.5,,,,,,0,293,293,293,,,,,,,,,,,,,,,,,,,,,ap,002,2019_Sep_27_1612,StressSession,3.2.3,59.940610837156555,
295,red,1760,0.5,,,,,,0,294,294,294,,,,,,,,,,,,,,,,,,,,,ap,002,2019_Sep_27_1612,StressSession,3.2.3,59.940610837156555,
296,red,1760,0.5,,,,,,0,295,295,295,,,,,,,,,,,,,,,,,,,,,ap,002,2019_Sep_27_1612,StressSession,3.2.3,59.940610837156555,
297,red,1760,0.5,,,,,,0,296,296,296,,,,,,,,,,,,,,,,,,,,,ap,002,2019_Sep_27_1612,StressSession,3.2.3,59.940610837156555,
298,red,1760,0.5,,,,,,0,297,297,297,,,,,,,,,,,,,,,,,,,,,ap,002,2019_Sep_27_1612,StressSession,3.2.3,59.940610837156555,
299,red,1760,0.5,,,,,,0,298,298,298,,,,,,,,,,,,,,,,,,,,,ap,002,2019_Sep_27_1612,StressSession,3.2.3,59.940610837156555,
300,red,1760,0.5,,,,,,0,299,299,299,,,,,,,,,,,,,,,,,,,,,ap,002,2019_Sep_27_1612,StressSession,3.2.3,59.940610837156555,
,,,,,,,,,,,,,,,,,,,2019-09-27_16:21:30,9,38.485,,,,,,,,,,,,ap,002,2019_Sep_27_1612,StressSession,3.2.3,59.940610837156555,
,,,,,,,,,,,,,,,,,,,,,,7,26.088,,,,,,,,,,ap,002,2019_Sep_27_1612,StressSession,3.2.3,59.940610837156555,
,,,,gelb,brown,gelb,braun,right,,,,,0,0,0,52,,,,,,,,2019-09-27_16:25:05,right,2.198034600005485,734.7890248999465,None,,,,,ap,002,2019_Sep_27_1612,StressSession,3.2.3,59.940610837156555,
,,,,schwarz,cyan,schwarz,cyan,right,,,,,0,1,1,104,,,,,,,,,left,1.472143099992536,737.5380682999967,None,,,,,ap,002,2019_Sep_27_1612,StressSession,3.2.3,59.940610837156555,
,,,,orange,black,schwarz,orange,left,,,,,0,2,2,173,,,,,,,,,left,2.161555099999532,739.5607014000416,None,,,,,ap,002,2019_Sep_27_1612,StressSession,3.2.3,59.940610837156555,
,,,,rot,cyan,cyan,rot,left,,,,,0,3,3,113,,,,,,,,,left,3.249917699955404,742.2561793000204,None,,,,,ap,002,2019_Sep_27_1612,StressSession,3.2.3,59.940610837156555,
,,,,weiß,magenta,magenta,weiß,left,,,,,0,4,4,204,,,,,,,,,right,1.6764426999725401,746.069654699997,None,,,,,ap,002,2019_Sep_27_1612,StressSession,3.2.3,59.940610837156555,
,,,,magenta,green,magenta,gruen,right,,,,,0,5,5,39,,,,,,,,,right,2.187423299998045,748.2953812000342,None,,,,,ap,002,2019_Sep_27_1612,StressSession,3.2.3,59.940610837156555,
,,,,blau,white,weiß,blau,left,,,,,0,6,6,127,,,,,,,,,left,1.7149482000386342,751.0230887000216,None,,,,,ap,002,2019_Sep_27_1612,StressSession,3.2.3,59.940610837156555,
,,,,blau,green,gruen,blau,left,,,,,0,7,7,120,,,,,,,,,left,2.037147399969399,753.2781295999885,None,,,,,ap,002,2019_Sep_27_1612,StressSession,3.2.3,59.940610837156555,
,,,,weiß,orange,weiß,orange,right,,,,,0,8,8,97,,,,,,,,,right,1.608728799968958,755.8574973000214,None,,,,,ap,002,2019_Sep_27_1612,StressSession,3.2.3,59.940610837156555,
,,,,gelb,black,schwarz,gelb,left,,,,,0,9,9,164,,,,,,,,,left,1.3864403000334278,758.0077911999542,None,,,,,ap,002,2019_Sep_27_1612,StressSession,3.2.3,59.940610837156555,
,,,,gelb,black,gelb,schwarz,right,,,,,0,10,10,54,,,,,,,,,right,2.389450899907388,759.9325062000426,None,,,,,ap,002,2019_Sep_27_1612,StressSession,3.2.3,59.940610837156555,
,,,,braun,magenta,magenta,braun,left,,,,,0,11,11,195,,,,,,,,,left,2.9994276999495924,762.8747790999478,None,,,,,ap,002,2019_Sep_27_1612,StressSession,3.2.3,59.940610837156555,
,,,,schwarz,white,schwarz,weiß,right,,,,,0,12,12,109,,,,,,,,,right,1.6059784999815747,766.4200969999656,None,,,,,ap,002,2019_Sep_27_1612,StressSession,3.2.3,59.940610837156555,
,,,,lila,magenta,lila,magenta,right,,,,,0,13,13,76,,,,,,,,,right,1.7995118000544608,768.5706036000047,None,,,,,ap,002,2019_Sep_27_1612,StressSession,3.2.3,59.940610837156555,
,,,,cyan,blue,blau,cyan,left,,,,,0,14,14,157,,,,,,,,,left,2.643370599951595,770.9188985000364,None,,,,,ap,002,2019_Sep_27_1612,StressSession,3.2.3,59.940610837156555,
,,,,cyan,yellow,cyan,gelb,right,,,,,0,15,15,40,,,,,,,,,right,1.7395632999250665,774.094473300036,None,,,,,ap,002,2019_Sep_27_1612,StressSession,3.2.3,59.940610837156555,
,,,,braun,black,schwarz,braun,left,,,,,0,16,16,191,,,,,,,,,left,1.8352623999817297,776.3828181000426,None,,,,,ap,002,2019_Sep_27_1612,StressSession,3.2.3,59.940610837156555,
,,,,gruen,black,gruen,schwarz,right,,,,,0,17,17,27,,,,,,,,,right,1.6951670000562444,778.7708907000488,None,,,,,ap,002,2019_Sep_27_1612,StressSession,3.2.3,59.940610837156555,
,,,,lila,red,lila,rot,right,,,,,0,18,18,73,,,,,,,,,right,1.5618391000898555,781.0164112000493,None,,,,,ap,002,2019_Sep_27_1612,StressSession,3.2.3,59.940610837156555,
,,,,blau,orange,blau,orange,right,,,,,0,19,19,14,,,,,,,,,right,1.4303960999241099,783.1156177000375,None,,,,,ap,002,2019_Sep_27_1612,StressSession,3.2.3,59.940610837156555,
,,,,gruen,cyan,cyan,gruen,left,,,,,0,20,20,131,,,,,,,,,left,1.8485610000789165,785.0973667999497,None,,,,,ap,002,2019_Sep_27_1612,StressSession,3.2.3,59.940610837156555,
,,,,braun,white,braun,weiß,right,,,,,0,21,21,80,,,,,,,,,right,1.6203681000042707,787.5023366999812,None,,,,,ap,002,2019_Sep_27_1612,StressSession,3.2.3,59.940610837156555,
,,,,rot,green,gruen,rot,left,,,,,0,22,22,111,,,,,,,,,left,1.2163542000344023,789.6657706999686,None,,,,,ap,002,2019_Sep_27_1612,StressSession,3.2.3,59.940610837156555,
,,,,orange,magenta,orange,magenta,right,,,,,0,23,23,67,,,,,,,,,right,1.2742302000988275,791.4327108999714,None,,,,,ap,002,2019_Sep_27_1612,StressSession,3.2.3,59.940610837156555,
,,,,gelb,brown,braun,gelb,left,,,,,0,24,24,162,,,,,,,,,left,2.0951900999061763,793.2437826000387,None,,,,,ap,002,2019_Sep_27_1612,StressSession,3.2.3,59.940610837156555,
,,,,lila,cyan,lila,cyan,right,,,,,0,25,25,77,,,,,,,,,right,1.4678573000710458,795.87820190005,None,,,,,ap,002,2019_Sep_27_1612,StressSession,3.2.3,59.940610837156555,
,,,,gruen,black,schwarz,gruen,left,,,,,0,26,26,137,,,,,,,,,left,1.6332243999931961,797.8967509999638,None,,,,,ap,002,2019_Sep_27_1612,StressSession,3.2.3,59.940610837156555,
,,,,magenta,green,gruen,magenta,left,,,,,0,27,27,149,,,,,,,,,left,1.2231156999478117,800.0830568999518,None,,,,,ap,002,2019_Sep_27_1612,StressSession,3.2.3,59.940610837156555,
,,,,lila,green,lila,gruen,right,,,,,0,28,28,75,,,,,,,,,right,2.0813407000387087,801.8409952999791,None,,,,,ap,002,2019_Sep_27_1612,StressSession,3.2.3,59.940610837156555,
,,,,gelb,purple,lila,gelb,left,,,,,0,29,29,161,,,,,,,,,left,2.6763217999832705,804.4457237999886,None,,,,,ap,002,2019_Sep_27_1612,StressSession,3.2.3,59.940610837156555,
,,,,schwarz,brown,braun,schwarz,left,,,,,0,30,30,218,,,,,,,,,left,4.28232139989268,807.6638448999729,None,,,,,ap,002,2019_Sep_27_1612,StressSession,3.2.3,59.940610837156555,
,,,,rot,black,rot,schwarz,right,,,,,0,31,31,9,,,,,,,,,right,1.0358638000907376,812.4865217000479,None,,,,,ap,002,2019_Sep_27_1612,StressSession,3.2.3,59.940610837156555,
,,,,lila,white,weiß,lila,left,,,,,0,32,32,181,,,,,,,,,left,2.4178291000425816,814.0722869000165,None,,,,,ap,002,2019_Sep_27_1612,StressSession,3.2.3,59.940610837156555,
,,,,cyan,magenta,magenta,cyan,left,,,,,0,33,33,159,,,,,,,,,left,3.1608922000741586,817.0414094999433,None,,,,,ap,002,2019_Sep_27_1612,StressSession,3.2.3,59.940610837156555,
,,,,braun,white,weiß,braun,left,,,,,0,34,34,190,,,,,,,,,left,2.595964699983597,820.7421533999732,None,,,,,ap,002,2019_Sep_27_1612,StressSession,3.2.3,59.940610837156555,
,,,,lila,blue,blau,lila,left,,,,,0,35,35,184,,,,,,,,,left,2.4443498000036925,823.8865082999691,None,,,,,ap,002,2019_Sep_27_1612,StressSession,3.2.3,59.940610837156555,
,,,,orange,red,rot,orange,left,,,,,0,36,36,174,,,,,,,,,left,1.7890962000237778,826.877462000004,None,,,,,ap,002,2019_Sep_27_1612,StressSession,3.2.3,59.940610837156555,
,,,,schwarz,green,schwarz,gruen,right,,,,,0,37,37,102,,,,,,,,,right,1.5600972999818623,829.210181399947,None,,,,,ap,002,2019_Sep_27_1612,StressSession,3.2.3,59.940610837156555,
,,,,cyan,orange,cyan,orange,right,,,,,0,38,38,41,,,,,,,,,right,1.7254256999585778,831.3246246000053,None,,,,,ap,002,2019_Sep_27_1612,StressSession,3.2.3,59.940610837156555,
,,,,rot,orange,orange,rot,left,,,,,0,39,39,115,,,,,,,,,left,1.9512012000195682,833.5869637000142,None,,,,,ap,002,2019_Sep_27_1612,StressSession,3.2.3,59.940610837156555,
,,,,orange,yellow,orange,gelb,right,,,,,0,40,40,69,,,,,,,,,right,1.2227777000516653,836.0758350000251,None,,,,,ap,002,2019_Sep_27_1612,StressSession,3.2.3,59.940610837156555,
,,,,cyan,brown,braun,cyan,left,,,,,0,41,41,153,,,,,,,,,left,1.7039424000540748,837.8341136999661,None,,,,,ap,002,2019_Sep_27_1612,StressSession,3.2.3,59.940610837156555,
,,,,gruen,yellow,gelb,gruen,left,,,,,0,42,42,132,,,,,,,,,left,1.250321300001815,840.087659999961,None,,,,,ap,002,2019_Sep_27_1612,StressSession,3.2.3,59.940610837156555,
,,,,lila,black,schwarz,lila,left,,,,,0,43,43,182,,,,,,,,,left,1.0948060000082478,841.8838721000357,None,,,,,ap,002,2019_Sep_27_1612,StressSession,3.2.3,59.940610837156555,
,,,,orange,white,orange,weiß,right,,,,,0,44,44,62,,,,,,,,,right,1.0422927999170497,843.5118650000077,None,,,,,ap,002,2019_Sep_27_1612,StressSession,3.2.3,59.940610837156555,
,,,,orange,brown,orange,braun,right,,,,,0,45,45,61,,,,,,,,,right,3.015527299954556,845.0904698000522,None,,,,,ap,002,2019_Sep_27_1612,StressSession,3.2.3,59.940610837156555,
,,,,braun,magenta,braun,magenta,right,,,,,0,46,46,85,,,,,,,,,right,2.0294171000132337,848.636687799939,None,,,,,ap,002,2019_Sep_27_1612,StressSession,3.2.3,59.940610837156555,
,,,,gelb,cyan,gelb,cyan,right,,,,,0,47,47,59,,,,,,,,,right,1.2812826000154018,851.2169623000082,None,,,,,ap,002,2019_Sep_27_1612,StressSession,3.2.3,59.940610837156555,
,,,,orange,blue,blau,orange,left,,,,,0,48,48,175,,,,,,,,,left,1.133049999945797,853.0529905000003,None,,,,,ap,002,2019_Sep_27_1612,StressSession,3.2.3,59.940610837156555,
,,,,schwarz,brown,schwarz,braun,right,,,,,0,49,49,108,,,,,,,,,right,1.1880413999315351,854.7340846000006,None,,,,,ap,002,2019_Sep_27_1612,StressSession,3.2.3,59.940610837156555,
,,,,cyan,white,weiß,cyan,left,,,,,0,50,50,154,,,,,,,,,left,1.0733948999550194,856.4646951999748,None,,,,,ap,002,2019_Sep_27_1612,StressSession,3.2.3,59.940610837156555,
,,,,weiß,brown,braun,weiß,left,,,,,0,51,51,209,,,,,,,,,left,2.10025380004663,858.0858566999668,None,,,,,ap,002,2019_Sep_27_1612,StressSession,3.2.3,59.940610837156555,
,,,,weiß,purple,weiß,lila,right,,,,,0,52,52,98,,,,,,,,,right,1.2200898000737652,860.7260429000016,None,,,,,ap,002,2019_Sep_27_1612,StressSession,3.2.3,59.940610837156555,
,,,,magenta,black,schwarz,magenta,left,,,,,0,53,53,146,,,,,,,,,left,1.4128871998982504,862.5012549000094,None,,,,,ap,002,2019_Sep_27_1612,StressSession,3.2.3,59.940610837156555,
,,,,gelb,magenta,magenta,gelb,left,,,,,0,54,54,168,,,,,,,,,left,1.1823846000479534,864.4679661999689,None,,,,,ap,002,2019_Sep_27_1612,StressSession,3.2.3,59.940610837156555,
,,,,braun,red,braun,rot,right,,,,,0,55,55,82,,,,,,,,,right,2.180317899910733,866.1979255999904,None,,,,,ap,002,2019_Sep_27_1612,StressSession,3.2.3,59.940610837156555,
,,,,magenta,black,magenta,schwarz,right,,,,,0,56,56,36,,,,,,,,,right,1.1218017999781296,868.9364069999428,None,,,,,ap,002,2019_Sep_27_1612,StressSession,3.2.3,59.940610837156555,
,,,,lila,yellow,lila,gelb,right,,,,,0,57,57,78,,,,,,,,,right,1.1949709999607876,870.5923646000447,None,,,,,ap,002,2019_Sep_27_1612,StressSession,3.2.3,59.940610837156555,
,,,,weiß,orange,orange,weiß,left,,,,,0,58,58,207,,,,,,,,,left,1.1444424000801519,872.3296625999501,None,,,,,ap,002,2019_Sep_27_1612,StressSession,3.2.3,59.940610837156555,
,,,,blau,cyan,blau,cyan,right,,,,,0,59,59,12,,,,,,,,,right,1.269089800072834,874.0053478999762,None,,,,,ap,002,2019_Sep_27_1612,StressSession,3.2.3,59.940610837156555,
,,,,schwarz,orange,orange,schwarz,left,,,,,0,60,60,216,,,,,,,,,left,1.4273312001023442,875.8309143000515,None,,,,,ap,002,2019_Sep_27_1612,StressSession,3.2.3,59.940610837156555,
,,,,rot,magenta,rot,magenta,right,,,,,0,61,61,2,,,,,,,,,right,1.1778081998927519,877.8090251999674,None,,,,,ap,002,2019_Sep_27_1612,StressSession,3.2.3,59.940610837156555,
,,,,weiß,green,gruen,weiß,left,,,,,0,62,62,203,,,,,,,,,left,1.177387100062333,879.5290209000232,None,,,,,ap,002,2019_Sep_27_1612,StressSession,3.2.3,59.940610837156555,
,,,,orange,red,orange,rot,right,,,,,0,63,63,64,,,,,,,,,right,1.2313294000923634,881.2589969000546,None,,,,,ap,002,2019_Sep_27_1612,StressSession,3.2.3,59.940610837156555,
,,,,rot,yellow,gelb,rot,left,,,,,0,64,64,114,,,,,,,,,left,1.2012313000159338,883.0337847999763,None,,,,,ap,002,2019_Sep_27_1612,StressSession,3.2.3,59.940610837156555,
,,,,cyan,red,cyan,rot,right,,,,,0,65,65,46,,,,,,,,,right,1.451702699996531,884.7669801999582,None,,,,,ap,002,2019_Sep_27_1612,StressSession,3.2.3,59.940610837156555,
,,,,blau,red,rot,blau,left,,,,,0,66,66,129,,,,,,,,,left,1.4475099000846967,886.7548658000305,None,,,,,ap,002,2019_Sep_27_1612,StressSession,3.2.3,59.940610837156555,
,,,,cyan,black,schwarz,cyan,left,,,,,0,67,67,155,,,,,,,,,left,1.4670954999746755,888.7431648999918,None,,,,,ap,002,2019_Sep_27_1612,StressSession,3.2.3,59.940610837156555,
,,,,orange,purple,orange,lila,right,,,,,0,68,68,60,,,,,,,,,right,1.6186454000417143,890.7597423000261,None,,,,,ap,002,2019_Sep_27_1612,StressSession,3.2.3,59.940610837156555,
,,,,braun,red,rot,braun,left,,,,,0,69,69,192,,,,,,,,,left,1.3751349000958726,892.9238289999776,None,,,,,ap,002,2019_Sep_27_1612,StressSession,3.2.3,59.940610837156555,
,,,,schwarz,blue,schwarz,blau,right,,,,,0,70,70,101,,,,,,,,,right,1.210357700008899,894.8399701999733,None,,,,,ap,002,2019_Sep_27_1612,StressSession,3.2.3,59.940610837156555,
,,,,gelb,green,gelb,gruen,right,,,,,0,71,71,57,,,,,,,,,right,1.2606375999748707,896.5898684000131,None,,,,,ap,002,2019_Sep_27_1612,StressSession,3.2.3,59.940610837156555,
,,,,gelb,blue,blau,gelb,left,,,,,0,72,72,166,,,,,,,,,left,1.9352187999757007,898.379376100027,None,,,,,ap,002,2019_Sep_27_1612,StressSession,3.2.3,59.940610837156555,
,,,,lila,yellow,gelb,lila,left,,,,,0,73,73,188,,,,,,,,,left,1.661320099956356,900.8532161000185,None,,,,,ap,002,2019_Sep_27_1612,StressSession,3.2.3,59.940610837156555,
,,,,magenta,white,magenta,weiß,right,,,,,0,74,74,35,,,,,,,,,right,1.0131771999876946,903.0610766999889,None,,,,,ap,002,2019_Sep_27_1612,StressSession,3.2.3,59.940610837156555,
,,,,cyan,green,gruen,cyan,left,,,,,0,75,75,158,,,,,,,,,left,1.9197996999137104,904.6182965999469,None,,,,,ap,002,2019_Sep_27_1612,StressSession,3.2.3,59.940610837156555,
,,,,schwarz,red,schwarz,rot,right,,,,,0,76,76,100,,,,,,,,,right,1.4827707998920232,907.0872911999468,None,,,,,ap,002,2019_Sep_27_1612,StressSession,3.2.3,59.940610837156555,
,,,,gruen,orange,orange,gruen,left,,,,,0,77,77,133,,,,,,,,,left,1.195226899930276,909.11895309994,None,,,,,ap,002,2019_Sep_27_1612,StressSession,3.2.3,59.940610837156555,
,,,,gelb,blue,gelb,blau,right,,,,,0,78,78,56,,,,,,,,,right,1.063934599980712,910.8501060999697,None,,,,,ap,002,2019_Sep_27_1612,StressSession,3.2.3,59.940610837156555,
,,,,gruen,magenta,magenta,gruen,left,,,,,0,79,79,130,,,,,,,,,left,1.0839350000023842,912.4543931999942,None,,,,,ap,002,2019_Sep_27_1612,StressSession,3.2.3,59.940610837156555,
,,,,orange,black,orange,schwarz,right,,,,,0,80,80,63,,,,,,,,,right,0.9754136999836192,914.0908249999629,None,,,,,ap,002,2019_Sep_27_1612,StressSession,3.2.3,59.940610837156555,
,,,,weiß,brown,weiß,braun,right,,,,,0,81,81,99,,,,,,,,,right,1.2807036999147385,915.6175275000278,None,,,,,ap,002,2019_Sep_27_1612,StressSession,3.2.3,59.940610837156555,
,,,,gelb,white,gelb,weiß,right,,,,,0,82,82,53,,,,,,,,,right,1.196835899958387,917.4533724000212,None,,,,,ap,002,2019_Sep_27_1612,StressSession,3.2.3,59.940610837156555,
,,,,cyan,black,cyan,schwarz,right,,,,,0,83,83,45,,,,,,,,,right,1.03039319999516,919.2039613999659,None,,,,,ap,002,2019_Sep_27_1612,StressSession,3.2.3,59.940610837156555,
,,,,rot,green,rot,gruen,right,,,,,0,84,84,1,,,,,,,,,right,1.1778407000238076,920.7842442999827,None,,,,,ap,002,2019_Sep_27_1612,StressSession,3.2.3,59.940610837156555,
,,,,rot,orange,rot,orange,right,,,,,0,85,85,5,,,,,,,,,left,0.9689900999655947,922.4900185000151,None,,,,,ap,002,2019_Sep_27_1612,StressSession,3.2.3,59.940610837156555,
,,,,orange,cyan,orange,cyan,right,,,,,0,86,86,68,,,,,,,,,right,1.6497026999713853,924.0004372999538,None,,,,,ap,002,2019_Sep_27_1612,StressSession,3.2.3,59.940610837156555,
,,,,gruen,white,gruen,weiß,right,,,,,0,87,87,26,,,,,,,,,right,1.370891600032337,926.1995008999947,None,,,,,ap,002,2019_Sep_27_1612,StressSession,3.2.3,59.940610837156555,
,,,,magenta,blue,magenta,blau,right,,,,,0,88,88,38,,,,,,,,,left,1.241259399917908,928.121059600031,None,,,,,ap,002,2019_Sep_27_1612,StressSession,3.2.3,59.940610837156555,
,,,,schwarz,yellow,gelb,schwarz,left,,,,,0,89,89,215,,,,,,,,,left,2.425982699962333,929.9130466999486,None,,,,,ap,002,2019_Sep_27_1612,StressSession,3.2.3,59.940610837156555,
,,,,weiß,cyan,cyan,weiß,left,,,,,0,90,90,205,,,,,,,,,left,1.7324410000583157,932.8778964000521,None,,,,,ap,002,2019_Sep_27_1612,StressSession,3.2.3,59.940610837156555,
,,,,rot,brown,rot,braun,right,,,,,0,91,91,7,,,,,,,,,right,3.5041967999422923,935.1619223000016,None,,,,,ap,002,2019_Sep_27_1612,StressSession,3.2.3,59.940610837156555,
,,,,magenta,yellow,gelb,magenta,left,,,,,0,92,92,141,,,,,,,,,left,1.8736572999041528,939.2167904999806,None,,,,,ap,002,2019_Sep_27_1612,StressSession,3.2.3,59.940610837156555,
,,,,orange,magenta,magenta,orange,left,,,,,0,93,93,177,,,,,,,,,left,2.2091284999623895,941.6331727999495,None,,,,,ap,002,2019_Sep_27_1612,StressSession,3.2.3,59.940610837156555,
,,,,schwarz,red,rot,schwarz,left,,,,,0,94,94,210,,,,,,,,,right,1.8558296000119299,944.3943783999421,None,,,,,ap,002,2019_Sep_27_1612,StressSession,3.2.3,59.940610837156555,
,,,,orange,green,gruen,orange,left,,,,,0,95,95,176,,,,,,,,,left,2.5018421000568196,946.7964155999944,None,,,,,ap,002,2019_Sep_27_1612,StressSession,3.2.3,59.940610837156555,
,,,,gruen,yellow,gruen,gelb,right,,,,,0,96,96,22,,,,,,,,,right,1.2912557000527158,949.8389876999427,None,,,,,ap,002,2019_Sep_27_1612,StressSession,3.2.3,59.940610837156555,
,,,,rot,blue,rot,blau,right,,,,,0,97,97,0,,,,,,,,,right,1.5408534000162035,951.6781596000073,None,,,,,ap,002,2019_Sep_27_1612,StressSession,3.2.3,59.940610837156555,
,,,,blau,white,blau,weiß,right,,,,,0,98,98,17,,,,,,,,,right,1.1527235000394285,953.7536648999667,None,,,,,ap,002,2019_Sep_27_1612,StressSession,3.2.3,59.940610837156555,
,,,,schwarz,purple,schwarz,lila,right,,,,,0,99,99,107,,,,,,,,,right,1.608214500010945,955.5060749000404,None,,,,,ap,002,2019_Sep_27_1612,StressSession,3.2.3,59.940610837156555,
,,,,orange,green,orange,gruen,right,,,,,0,100,100,66,,,,,,,,,right,1.4302615999476984,957.6599827000173,None,,,,,ap,002,2019_Sep_27_1612,StressSession,3.2.3,59.940610837156555,
,,,,schwarz,orange,schwarz,orange,right,,,,,0,101,101,106,,,,,,,,,right,1.6579668999183923,959.6415778000373,None,,,,,ap,002,2019_Sep_27_1612,StressSession,3.2.3,59.940610837156555,
,,,,lila,red,rot,lila,left,,,,,0,102,102,183,,,,,,,,,left,1.0204347999533638,961.8378107999451,None,,,,,ap,002,2019_Sep_27_1612,StressSession,3.2.3,59.940610837156555,
,,,,blau,black,blau,schwarz,right,,,,,0,103,103,18,,,,,,,,,right,1.5468146000057459,963.4073812999995,None,,,,,ap,002,2019_Sep_27_1612,StressSession,3.2.3,59.940610837156555,
,,,,weiß,black,weiß,schwarz,right,,,,,0,104,104,90,,,,,,,,,right,2.382236799923703,965.5002167000202,None,,,,,ap,002,2019_Sep_27_1612,StressSession,3.2.3,59.940610837156555,
,,,,schwarz,blue,blau,schwarz,left,,,,,0,105,105,211,,,,,,,,,left,1.1125393999973312,968.4184120999416,None,,,,,ap,002,2019_Sep_27_1612,StressSession,3.2.3,59.940610837156555,
,,,,braun,purple,lila,braun,left,,,,,0,106,106,199,,,,,,,,,left,1.2824506000615656,970.0717460999731,None,,,,,ap,002,2019_Sep_27_1612,StressSession,3.2.3,59.940610837156555,
,,,,gelb,red,gelb,rot,right,,,,,0,107,107,55,,,,,,,,,right,1.988279499928467,971.9020314000081,None,,,,,ap,002,2019_Sep_27_1612,StressSession,3.2.3,59.940610837156555,
,,,,weiß,magenta,weiß,magenta,right,,,,,0,108,108,94,,,,,,,,,right,1.0867404999444261,974.4438198000425,None,,,,,ap,002,2019_Sep_27_1612,StressSession,3.2.3,59.940610837156555,
,,,,blau,brown,blau,braun,right,,,,,0,109,109,16,,,,,,,,,right,1.8171632000012323,976.0650108000264,None,,,,,ap,002,2019_Sep_27_1612,StressSession,3.2.3,59.940610837156555,
,,,,orange,purple,lila,orange,left,,,,,0,110,110,170,,,,,,,,,left,1.3311741000507027,978.4229440999916,None,,,,,ap,002,2019_Sep_27_1612,StressSession,3.2.3,59.940610837156555,
,,,,lila,orange,lila,orange,right,,,,,0,111,111,79,,,,,,,,,right,1.645397000014782,980.285078600049,None,,,,,ap,002,2019_Sep_27_1612,StressSession,3.2.3,59.940610837156555,
,,,,cyan,purple,cyan,lila,right,,,,,0,112,112,42,,,,,,,,,right,4.578949199989438,982.4711707000388,None,,,,,ap,002,2019_Sep_27_1612,StressSession,3.2.3,59.940610837156555,
,,,,magenta,red,rot,magenta,left,,,,,0,113,113,147,,,,,,,,,left,2.0248974000569433,987.602070700028,None,,,,,ap,002,2019_Sep_27_1612,StressSession,3.2.3,59.940610837156555,
,,,,gelb,orange,orange,gelb,left,,,,,0,114,114,160,,,,,,,,,right,1.6974902000511065,990.1686453999719,None,,,,,ap,002,2019_Sep_27_1612,StressSession,3.2.3,59.940610837156555,
,,,,braun,green,gruen,braun,left,,,,,0,115,115,194,,,,,,,,,left,1.5912082999711856,992.419260900002,None,,,,,ap,002,2019_Sep_27_1612,StressSession,3.2.3,59.940610837156555,
,,,,lila,black,lila,schwarz,right,,,,,0,116,116,72,,,,,,,,,right,0.9087601999053732,994.5499587999657,None,,,,,ap,002,2019_Sep_27_1612,StressSession,3.2.3,59.940610837156555,
,,,,cyan,red,rot,cyan,left,,,,,0,117,117,156,,,,,,,,,left,1.9776312001049519,996.0008769000415,None,,,,,ap,002,2019_Sep_27_1612,StressSession,3.2.3,59.940610837156555,
,,,,rot,blue,blau,rot,left,,,,,0,118,118,110,,,,,,,,,left,2.5625591999851167,998.5283000000054,None,,,,,ap,002,2019_Sep_27_1612,StressSession,3.2.3,59.940610837156555,
,,,,gruen,white,weiß,gruen,left,,,,,0,119,119,136,,,,,,,,,right,1.4563331999816,1001.6346383000491,None,,,,,ap,002,2019_Sep_27_1612,StressSession,3.2.3,59.940610837156555,
,,,,schwarz,cyan,cyan,schwarz,left,,,,,0,120,120,214,,,,,,,,,left,1.857428599963896,1003.6328720999882,None,,,,,ap,002,2019_Sep_27_1612,StressSession,3.2.3,59.940610837156555,
,,,,rot,magenta,magenta,rot,left,,,,,0,121,121,112,,,,,,,,,left,3.0391094000078738,1006.0270246999571,None,,,,,ap,002,2019_Sep_27_1612,StressSession,3.2.3,59.940610837156555,
,,,,braun,yellow,braun,gelb,right,,,,,0,122,122,87,,,,,,,,,right,1.8209513000911102,1009.6134325000457,None,,,,,ap,002,2019_Sep_27_1612,StressSession,3.2.3,59.940610837156555,
,,,,weiß,yellow,gelb,weiß,left,,,,,0,123,123,206,,,,,,,,,left,1.7443141000112519,1011.9780775000108,None,,,,,ap,002,2019_Sep_27_1612,StressSession,3.2.3,59.940610837156555,
,,,,blau,magenta,blau,magenta,right,,,,,0,124,124,11,,,,,,,,,right,1.7045256999554113,1014.2577005999628,None,,,,,ap,002,2019_Sep_27_1612,StressSession,3.2.3,59.940610837156555,
,,,,lila,blue,lila,blau,right,,,,,0,125,125,74,,,,,,,,,right,1.099595099920407,1016.5105207000161,None,,,,,ap,002,2019_Sep_27_1612,StressSession,3.2.3,59.940610837156555,
,,,,gruen,blue,blau,gruen,left,,,,,0,126,126,139,,,,,,,,,left,1.685688899946399,1018.1646008000243,None,,,,,ap,002,2019_Sep_27_1612,StressSession,3.2.3,59.940610837156555,
,,,,lila,brown,braun,lila,left,,,,,0,127,127,180,,,,,,,,,left,1.7780247000046074,1020.3924889999907,None,,,,,ap,002,2019_Sep_27_1612,StressSession,3.2.3,59.940610837156555,
,,,,magenta,purple,magenta,lila,right,,,,,0,128,128,33,,,,,,,,,left,8.52715740003623,1022.7072196999798,None,,,,,ap,002,2019_Sep_27_1612,StressSession,3.2.3,59.940610837156555,
,,,,orange,blue,orange,blau,right,,,,,0,129,129,65,,,,,,,,,right,2.3234966000309214,1031.7753705000505,None,,,,,ap,002,2019_Sep_27_1612,StressSession,3.2.3,59.940610837156555,
,,,,schwarz,green,gruen,schwarz,left,,,,,0,130,130,212,,,,,,,,,left,1.528617599979043,1034.6416476999875,None,,,,,ap,002,2019_Sep_27_1612,StressSession,3.2.3,59.940610837156555,
,,,,cyan,blue,cyan,blau,right,,,,,0,131,131,47,,,,,,,,,right,1.6235040000174195,1036.7237237000372,None,,,,,ap,002,2019_Sep_27_1612,StressSession,3.2.3,59.940610837156555,
,,,,gruen,orange,gruen,orange,right,,,,,0,132,132,23,,,,,,,,,right,1.5183506000321358,1038.89211539994,None,,,,,ap,002,2019_Sep_27_1612,StressSession,3.2.3,59.940610837156555,
,,,,gruen,brown,braun,gruen,left,,,,,0,133,133,135,,,,,,,,,left,1.5547160999849439,1040.9514935000334,None,,,,,ap,002,2019_Sep_27_1612,StressSession,3.2.3,59.940610837156555,
,,,,cyan,white,cyan,weiß,right,,,,,0,134,134,44,,,,,,,,,right,0.9400077000027522,1043.054258499993,None,,,,,ap,002,2019_Sep_27_1612,StressSession,3.2.3,59.940610837156555,
,,,,cyan,yellow,gelb,cyan,left,,,,,0,135,135,150,,,,,,,,,left,1.1356234999839216,1044.5306933999527,None,,,,,ap,002,2019_Sep_27_1612,StressSession,3.2.3,59.940610837156555,
,,,,braun,purple,braun,lila,right,,,,,0,136,136,89,,,,,,,,,right,2.093902299995534,1046.204265199951,None,,,,,ap,002,2019_Sep_27_1612,StressSession,3.2.3,59.940610837156555,
,,,,blau,purple,lila,blau,left,,,,,0,137,137,125,,,,,,,,,left,1.5883819999871776,1048.8226130999392,None,,,,,ap,002,2019_Sep_27_1612,StressSession,3.2.3,59.940610837156555,
,,,,gruen,red,gruen,rot,right,,,,,0,138,138,28,,,,,,,,,right,1.440601999987848,1050.954283399973,None,,,,,ap,002,2019_Sep_27_1612,StressSession,3.2.3,59.940610837156555,
,,,,gruen,purple,gruen,lila,right,,,,,0,139,139,24,,,,,,,,,right,1.4075456999707967,1052.922951900051,None,,,,,ap,002,2019_Sep_27_1612,StressSession,3.2.3,59.940610837156555,
,,,,braun,orange,orange,braun,left,,,,,0,140,140,198,,,,,,,,,left,1.6536684000166133,1054.8686607000418,None,,,,,ap,002,2019_Sep_27_1612,StressSession,3.2.3,59.940610837156555,
,,,,magenta,yellow,magenta,gelb,right,,,,,0,141,141,31,,,,,,,,,right,1.0997118999948725,1057.0704787999857,None,,,,,ap,002,2019_Sep_27_1612,StressSession,3.2.3,59.940610837156555,
,,,,magenta,blue,blau,magenta,left,,,,,0,142,142,148,,,,,,,,,left,2.27929109998513,1058.715284200036,None,,,,,ap,002,2019_Sep_27_1612,StressSession,3.2.3,59.940610837156555,
,,,,weiß,yellow,weiß,gelb,right,,,,,0,143,143,96,,,,,,,,,right,2.120811100001447,1061.5384147999575,None,,,,,ap,002,2019_Sep_27_1612,StressSession,3.2.3,59.940610837156555,
,,,,magenta,purple,lila,magenta,left,,,,,0,144,144,143,,,,,,,,,right,3.582761700032279,1064.2035259000259,None,,,,,ap,002,2019_Sep_27_1612,StressSession,3.2.3,59.940610837156555,
,,,,weiß,black,schwarz,weiß,left,,,,,0,145,145,200,,,,,,,,,left,1.1388646999839693,1068.335897400044,None,,,,,ap,002,2019_Sep_27_1612,StressSession,3.2.3,59.940610837156555,
,,,,orange,white,weiß,orange,left,,,,,0,146,146,172,,,,,,,,,right,1.8510010000318289,1070.0153700000374,None,,,,,ap,002,2019_Sep_27_1612,StressSession,3.2.3,59.940610837156555,
,,,,lila,magenta,magenta,lila,left,,,,,0,147,147,186,,,,,,,,,left,4.682876499951817,1072.4155800000299,None,,,,,ap,002,2019_Sep_27_1612,StressSession,3.2.3,59.940610837156555,
,,,,lila,white,lila,weiß,right,,,,,0,148,148,71,,,,,,,,,right,1.889702699962072,1077.6405219000299,None,,,,,ap,002,2019_Sep_27_1612,StressSession,3.2.3,59.940610837156555,
,,,,gelb,cyan,cyan,gelb,left,,,,,0,149,149,169,,,,,,,,,left,2.4413397000171244,1080.0813552000327,None,,,,,ap,002,2019_Sep_27_1612,StressSession,3.2.3,59.940610837156555,
,,,,blau,black,schwarz,blau,left,,,,,0,150,150,128,,,,,,,,,left,1.3438961999490857,1083.0594919000287,None,,,,,ap,002,2019_Sep_27_1612,StressSession,3.2.3,59.940610837156555,
,,,,cyan,brown,cyan,braun,right,,,,,0,151,151,43,,,,,,,,,right,1.4334563999436796,1084.9448696000036,None,,,,,ap,002,2019_Sep_27_1612,StressSession,3.2.3,59.940610837156555,
,,,,gelb,white,weiß,gelb,left,,,,,0,152,152,163,,,,,,,,,left,1.8945172000676394,1086.924422299955,None,,,,,ap,002,2019_Sep_27_1612,StressSession,3.2.3,59.940610837156555,
,,,,magenta,white,weiß,magenta,left,,,,,0,153,153,145,,,,,,,,,left,1.049792299978435,1089.3603807999752,None,,,,,ap,002,2019_Sep_27_1612,StressSession,3.2.3,59.940610837156555,
,,,,blau,orange,orange,blau,left,,,,,0,154,154,124,,,,,,,,,right,1.3540371999843046,1090.9604823000263,None,,,,,ap,002,2019_Sep_27_1612,StressSession,3.2.3,59.940610837156555,
,,,,orange,brown,braun,orange,left,,,,,0,155,155,171,,,,,,,,,right,5.795803799992427,1092.8624728999566,None,,,,,ap,002,2019_Sep_27_1612,StressSession,3.2.3,59.940610837156555,
,,,,blau,purple,blau,lila,right,,,,,0,156,156,15,,,,,,,,,right,2.2141587999649346,1099.2042650999501,None,,,,,ap,002,2019_Sep_27_1612,StressSession,3.2.3,59.940610837156555,
,,,,rot,cyan,rot,cyan,right,,,,,0,157,157,3,,,,,,,,,right,1.773495600093156,1101.9566884000087,None,,,,,ap,002,2019_Sep_27_1612,StressSession,3.2.3,59.940610837156555,
,,,,gelb,purple,gelb,lila,right,,,,,0,158,158,51,,,,,,,,,right,2.4908401999855414,1104.271375900018,None,,,,,ap,002,2019_Sep_27_1612,StressSession,3.2.3,59.940610837156555,
,,,,schwarz,magenta,magenta,schwarz,left,,,,,0,159,159,213,,,,,,,,,left,1.7407515000086278,1107.3096497999504,None,,,,,ap,002,2019_Sep_27_1612,StressSession,3.2.3,59.940610837156555,
,,,,cyan,green,cyan,gruen,right,,,,,0,160,160,48,,,,,,,,,right,1.3651640999596566,1109.5735715000192,None,,,,,ap,002,2019_Sep_27_1612,StressSession,3.2.3,59.940610837156555,
,,,,cyan,purple,lila,cyan,left,,,,,0,161,161,152,,,,,,,,,left,2.9503363999538124,1111.4758166000247,None,,,,,ap,002,2019_Sep_27_1612,StressSession,3.2.3,59.940610837156555,
,,,,magenta,cyan,cyan,magenta,left,,,,,0,162,162,140,,,,,,,,,left,2.396557300002314,1114.9735995000228,None,,,,,ap,002,2019_Sep_27_1612,StressSession,3.2.3,59.940610837156555,
,,,,lila,green,gruen,lila,left,,,,,0,163,163,185,,,,,,,,,left,2.6816237000748515,1117.9206605999498,None,,,,,ap,002,2019_Sep_27_1612,StressSession,3.2.3,59.940610837156555,
,,,,cyan,orange,orange,cyan,left,,,,,0,164,164,151,,,,,,,,,right,1.5137366999406368,1121.1526408999925,None,,,,,ap,002,2019_Sep_27_1612,StressSession,3.2.3,59.940610837156555,
,,,,schwarz,purple,lila,schwarz,left,,,,,0,165,165,217,,,,,,,,,left,2.15132160007488,1123.21891159995,None,,,,,ap,002,2019_Sep_27_1612,StressSession,3.2.3,59.940610837156555,
,,,,weiß,green,weiß,gruen,right,,,,,0,166,166,93,,,,,,,,,right,1.9218891001073644,1125.9211926000426,None,,,,,ap,002,2019_Sep_27_1612,StressSession,3.2.3,59.940610837156555,
,,,,weiß,cyan,weiß,cyan,right,,,,,0,167,167,95,,,,,,,,,right,2.4086917999666184,1128.3699197999667,None,,,,,ap,002,2019_Sep_27_1612,StressSession,3.2.3,59.940610837156555,
,,,,blau,yellow,gelb,blau,left,,,,,0,168,168,123,,,,,,,,,left,2.834057900006883,1131.3123688000487,None,,,,,ap,002,2019_Sep_27_1612,StressSession,3.2.3,59.940610837156555,
,,,,rot,purple,lila,rot,left,,,,,0,169,169,116,,,,,,,,,left,1.8866084999172017,1134.6997115999693,None,,,,,ap,002,2019_Sep_27_1612,StressSession,3.2.3,59.940610837156555,
,,,,schwarz,white,weiß,schwarz,left,,,,,0,170,170,219,,,,,,,,,left,1.8428709999425337,1137.1353185999906,None,,,,,ap,002,2019_Sep_27_1612,StressSession,3.2.3,59.940610837156555,
,,,,weiß,blue,blau,weiß,left,,,,,0,171,171,202,,,,,,,,,left,4.103716399986297,1139.5306580000324,None,,,,,ap,002,2019_Sep_27_1612,StressSession,3.2.3,59.940610837156555,
,,,,gelb,orange,gelb,orange,right,,,,,0,172,172,50,,,,,,,,,left,1.5311262999894097,1144.183001599973,None,,,,,ap,002,2019_Sep_27_1612,StressSession,3.2.3,59.940610837156555,
,,,,lila,brown,lila,braun,right,,,,,0,173,173,70,,,,,,,,,right,3.4593585000839084,1146.271062099957,None,,,,,ap,002,2019_Sep_27_1612,StressSession,3.2.3,59.940610837156555,
,,,,rot,white,weiß,rot,left,,,,,0,174,174,118,,,,,,,,,left,0.9810853999806568,1150.277309600031,None,,,,,ap,002,2019_Sep_27_1612,StressSession,3.2.3,59.940610837156555,
,,,,lila,orange,orange,lila,left,,,,,0,175,175,189,,,,,,,,,left,2.484251099987887,1151.814323800034,None,,,,,ap,002,2019_Sep_27_1612,StressSession,3.2.3,59.940610837156555,
,,,,magenta,orange,magenta,orange,right,,,,,0,176,176,32,,,,,,,,,right,2.8797442000359297,1154.8505245000124,None,,,,,ap,002,2019_Sep_27_1612,StressSession,3.2.3,59.940610837156555,
,,,,blau,red,blau,rot,right,,,,,0,177,177,19,,,,,,,,,right,3.1263899999903515,1158.267976299976,None,,,,,ap,002,2019_Sep_27_1612,StressSession,3.2.3,59.940610837156555,
,,,,gruen,magenta,gruen,magenta,right,,,,,0,178,178,20,,,,,,,,,right,2.4550574000459164,1161.9317791999783,None,,,,,ap,002,2019_Sep_27_1612,StressSession,3.2.3,59.940610837156555,
,,,,cyan,magenta,cyan,magenta,right,,,,,0,179,179,49,,,,,,,,,left,1.097628299961798,1164.921438600053,None,,,,,ap,002,2019_Sep_27_1612,StressSession,3.2.3,59.940610837156555,
,,,,magenta,brown,braun,magenta,left,,,,,0,180,180,144,,,,,,,,,left,2.4696525000035763,1166.556546799955,None,,,,,ap,002,2019_Sep_27_1612,StressSession,3.2.3,59.940610837156555,
,,,,braun,yellow,gelb,braun,left,,,,,0,181,181,197,,,,,,,,,left,1.9367284999461845,1169.577580400044,None,,,,,ap,002,2019_Sep_27_1612,StressSession,3.2.3,59.940610837156555,
,,,,braun,orange,braun,orange,right,,,,,0,182,182,88,,,,,,,,,right,1.2545084999874234,1172.0516982999397,None,,,,,ap,002,2019_Sep_27_1612,StressSession,3.2.3,59.940610837156555,
,,,,weiß,red,weiß,rot,right,,,,,0,183,183,91,,,,,,,,,left,1.4291541000129655,1173.8536954999436,None,,,,,ap,002,2019_Sep_27_1612,StressSession,3.2.3,59.940610837156555,
,,,,magenta,cyan,magenta,cyan,right,,,,,0,184,184,30,,,,,,,,,right,3.313098600017838,1175.8251716999803,None,,,,,ap,002,2019_Sep_27_1612,StressSession,3.2.3,59.940610837156555,
,,,,weiß,blue,weiß,blau,right,,,,,0,185,185,92,,,,,,,,,right,2.714627799927257,1179.6957825999707,None,,,,,ap,002,2019_Sep_27_1612,StressSession,3.2.3,59.940610837156555,
,,,,magenta,red,magenta,rot,right,,,,,0,186,186,37,,,,,,,,,right,2.460484799928963,1182.941847500042,None,,,,,ap,002,2019_Sep_27_1612,StressSession,3.2.3,59.940610837156555,
,,,,blau,cyan,cyan,blau,left,,,,,0,187,187,122,,,,,,,,,left,1.6189240000676364,1185.9512989999494,None,,,,,ap,002,2019_Sep_27_1612,StressSession,3.2.3,59.940610837156555,
,,,,orange,yellow,gelb,orange,left,,,,,0,188,188,179,,,,,,,,,left,3.125702299992554,1188.1246188000077,None,,,,,ap,002,2019_Sep_27_1612,StressSession,3.2.3,59.940610837156555,
,,,,weiß,purple,lila,weiß,left,,,,,0,189,189,208,,,,,,,,,left,2.0091014000354335,1191.8021278999513,None,,,,,ap,002,2019_Sep_27_1612,StressSession,3.2.3,59.940610837156555,
,,,,braun,green,braun,gruen,right,,,,,0,190,190,84,,,,,,,,,right,2.627005400019698,1194.3512895000167,None,,,,,ap,002,2019_Sep_27_1612,StressSession,3.2.3,59.940610837156555,
,,,,gelb,magenta,gelb,magenta,right,,,,,0,191,191,58,,,,,,,,,right,1.8915219999616966,1197.51897189999,None,,,,,ap,002,2019_Sep_27_1612,StressSession,3.2.3,59.940610837156555,
,,,,braun,blue,blau,braun,left,,,,,0,192,192,193,,,,,,,,,left,1.7013376000104472,1199.949175399961,None,,,,,ap,002,2019_Sep_27_1612,StressSession,3.2.3,59.940610837156555,
,,,,rot,brown,braun,rot,left,,,,,0,193,193,117,,,,,,,,,left,1.1871226000366732,1202.1992720999988,None,,,,,ap,002,2019_Sep_27_1612,StressSession,3.2.3,59.940610837156555,
,,,,gruen,red,rot,gruen,left,,,,,0,194,194,138,,,,,,,,,left,1.5470515000633895,1203.928000899963,None,,,,,ap,002,2019_Sep_27_1612,StressSession,3.2.3,59.940610837156555,
,,,,blau,yellow,blau,gelb,right,,,,,0,195,195,13,,,,,,,,,right,1.5498545001028106,1206.0125271000434,None,,,,,ap,002,2019_Sep_27_1612,StressSession,3.2.3,59.940610837156555,
,,,,magenta,orange,orange,magenta,left,,,,,0,196,196,142,,,,,,,,,left,1.1542759001022205,1208.1204194000456,None,,,,,ap,002,2019_Sep_27_1612,StressSession,3.2.3,59.940610837156555,
,,,,blau,brown,braun,blau,left,,,,,0,197,197,126,,,,,,,,,left,2.390849700081162,1209.8118207999505,None,,,,,ap,002,2019_Sep_27_1612,StressSession,3.2.3,59.940610837156555,
,,,,gruen,cyan,gruen,cyan,right,,,,,0,198,198,21,,,,,,,,,right,1.748130099964328,1212.7423985999776,None,,,,,ap,002,2019_Sep_27_1612,StressSession,3.2.3,59.940610837156555,
,,,,rot,white,rot,weiß,right,,,,,0,199,199,8,,,,,,,,,right,1.3344250000081956,1215.02795290004,None,,,,,ap,002,2019_Sep_27_1612,StressSession,3.2.3,59.940610837156555,
,,,,braun,cyan,cyan,braun,left,,,,,0,200,200,196,,,,,,,,,left,2.0084017000626773,1216.9143950999714,None,,,,,ap,002,2019_Sep_27_1612,StressSession,3.2.3,59.940610837156555,
,,,,gruen,brown,gruen,braun,right,,,,,0,201,201,25,,,,,,,,,right,1.5099552000174299,1219.4611387000186,None,,,,,ap,002,2019_Sep_27_1612,StressSession,3.2.3,59.940610837156555,
,,,,lila,cyan,cyan,lila,left,,,,,0,202,202,187,,,,,,,,,left,1.4678654000163078,1221.5104338000529,None,,,,,ap,002,2019_Sep_27_1612,StressSession,3.2.3,59.940610837156555,
,,,,schwarz,yellow,schwarz,gelb,right,,,,,0,203,203,105,,,,,,,,,right,1.09826240001712,1223.5360623999732,None,,,,,ap,002,2019_Sep_27_1612,StressSession,3.2.3,59.940610837156555,
,,,,gelb,red,rot,gelb,left,,,,,0,204,204,165,,,,,,,,,left,1.8811236000619829,1225.1691976999864,None,,,,,ap,002,2019_Sep_27_1612,StressSession,3.2.3,59.940610837156555,
,,,,gelb,green,gruen,gelb,left,,,,,0,205,205,167,,,,,,,,,left,2.6612432999536395,1227.5811411000323,None,,,,,ap,002,2019_Sep_27_1612,StressSession,3.2.3,59.940610837156555,
,,,,braun,blue,braun,blau,right,,,,,0,206,206,83,,,,,,,,,right,1.76000530004967,1230.7942661000416,None,,,,,ap,002,2019_Sep_27_1612,StressSession,3.2.3,59.940610837156555,
,,,,orange,cyan,cyan,orange,left,,,,,0,207,207,178,,,,,,,,,left,1.7958005999680609,1233.094418099965,None,,,,,ap,002,2019_Sep_27_1612,StressSession,3.2.3,59.940610837156555,
,,,,braun,black,braun,schwarz,right,,,,,0,208,208,81,,,,,,,,,right,1.3645506999455392,1235.4458443999756,None,,,,,ap,002,2019_Sep_27_1612,StressSession,3.2.3,59.940610837156555,
,,,,weiß,red,rot,weiß,left,,,,,0,209,209,201,,,,,,,,,left,1.743500699987635,1237.3559052000055,None,,,,,ap,002,2019_Sep_27_1612,StressSession,3.2.3,59.940610837156555,
,,,,braun,cyan,braun,cyan,right,,,,,0,210,210,86,,,,,,,,,right,1.8340975999599323,1239.6402622000314,None,,,,,ap,002,2019_Sep_27_1612,StressSession,3.2.3,59.940610837156555,
,,,,gruen,purple,lila,gruen,left,,,,,0,211,211,134,,,,,,,,,left,1.8106346999993548,1242.0318116999697,None,,,,,ap,002,2019_Sep_27_1612,StressSession,3.2.3,59.940610837156555,
,,,,rot,black,schwarz,rot,left,,,,,0,212,212,119,,,,,,,,,left,1.9236420000670478,1244.3914279999444,None,,,,,ap,002,2019_Sep_27_1612,StressSession,3.2.3,59.940610837156555,
,,,,blau,green,blau,gruen,right,,,,,0,213,213,10,,,,,,,,,right,1.2176029999973252,1246.8568534000078,None,,,,,ap,002,2019_Sep_27_1612,StressSession,3.2.3,59.940610837156555,
,,,,schwarz,magenta,schwarz,magenta,right,,,,,0,214,214,103,,,,,,,,,right,1.1127869000192732,1248.6255165999755,None,,,,,ap,002,2019_Sep_27_1612,StressSession,3.2.3,59.940610837156555,
,,,,rot,yellow,rot,gelb,right,,,,,0,215,215,4,,,,,,,,,right,1.5801447000121698,1250.2862411000533,None,,,,,ap,002,2019_Sep_27_1612,StressSession,3.2.3,59.940610837156555,
,,,,gruen,blue,gruen,blau,right,,,,,0,216,216,29,,,,,,,,,right,1.5235361999366432,1252.4072201000527,None,,,,,ap,002,2019_Sep_27_1612,StressSession,3.2.3,59.940610837156555,
,,,,magenta,brown,magenta,braun,right,,,,,0,217,217,34,,,,,,,,,right,1.7682219999842346,1254.47424520005,None,,,,,ap,002,2019_Sep_27_1612,StressSession,3.2.3,59.940610837156555,
,,,,blau,magenta,magenta,blau,left,,,,,0,218,218,121,,,,,,,,,left,1.3846685000462458,1256.7784039999824,None,,,,,ap,002,2019_Sep_27_1612,StressSession,3.2.3,59.940610837156555,
,,,,rot,purple,rot,lila,right,,,,,0,219,219,6,,,,,,,,,right,1.7947408000472933,1258.7035511999857,None,,,,,ap,002,2019_Sep_27_1612,StressSession,3.2.3,59.940610837156555,
,,,,,,,,,,,,,,,,,,,,2,100.449,,,,,,,,2019-09-27_16:33:53,,,,ap,002,2019_Sep_27_1612,StressSession,3.2.3,59.940610837156555,
,,,,,,,,,,,,,,,,,,,,,,3,12.979,,,,,,,,,,ap,002,2019_Sep_27_1612,StressSession,3.2.3,59.940610837156555,
,,,,,,,,,,,,,,,,,,,,1,12.283,,,,,,,,,2019-09-27_16:36:47,2019-09-27_16:41:47,,ap,002,2019_Sep_27_1612,StressSession,3.2.3,59.940610837156555,
,,,,,,,,,,,,,,,,,,,,,,,,,,,,,,,,2019-09-27_16:42:02,,,,,,,
