Tick,Color,Tone,TimeDur,WordItem,WordColor,AnsLeft,AnsRight,AnsCorr,tick.thisRepN,tick.thisTrialN,tick.thisN,tick.thisIndex,stroop_trials.thisRepN,stroop_trials.thisTrialN,stroop_trials.thisN,stroop_trials.thisIndex,start_session_two,start_stress_one,end_stress_one,rating_evaluation_one.response,rating_evaluation_one.rt,rating_evaluation_two.response,rating_evaluation_two.rt,start_stress_two,key_resp_part_two_meas.keys,key_resp_part_two_meas.rt,key_resp_part_two_meas.started,key_resp_part_two_meas.stopped,end_stress_two,start_cooldown_measurement,end_cooldown_measurement,end_session_two,participant,session,date,expName,psychopyVersion,frameRate,
1,green,440,1.0,,,,,,0,0,0,0,,,,,2019-09-18_09:57:26,2019-09-18_09:58:29,,,,,,,,,,,,,,,lw,002,2019_Sep_18_0957,StressSession,3.1.3,60.06632598129716,
2,green,440,1.0,,,,,,0,1,1,1,,,,,,,,,,,,,,,,,,,,,lw,002,2019_Sep_18_0957,StressSession,3.1.3,60.06632598129716,
3,green,440,1.0,,,,,,0,2,2,2,,,,,,,,,,,,,,,,,,,,,lw,002,2019_Sep_18_0957,StressSession,3.1.3,60.06632598129716,
4,green,440,1.0,,,,,,0,3,3,3,,,,,,,,,,,,,,,,,,,,,lw,002,2019_Sep_18_0957,StressSession,3.1.3,60.06632598129716,
5,green,440,1.0,,,,,,0,4,4,4,,,,,,,,,,,,,,,,,,,,,lw,002,2019_Sep_18_0957,StressSession,3.1.3,60.06632598129716,
6,green,440,1.0,,,,,,0,5,5,5,,,,,,,,,,,,,,,,,,,,,lw,002,2019_Sep_18_0957,StressSession,3.1.3,60.06632598129716,
7,green,440,1.0,,,,,,0,6,6,6,,,,,,,,,,,,,,,,,,,,,lw,002,2019_Sep_18_0957,StressSession,3.1.3,60.06632598129716,
8,green,440,1.0,,,,,,0,7,7,7,,,,,,,,,,,,,,,,,,,,,lw,002,2019_Sep_18_0957,StressSession,3.1.3,60.06632598129716,
9,green,440,1.0,,,,,,0,8,8,8,,,,,,,,,,,,,,,,,,,,,lw,002,2019_Sep_18_0957,StressSession,3.1.3,60.06632598129716,
10,green,440,1.0,,,,,,0,9,9,9,,,,,,,,,,,,,,,,,,,,,lw,002,2019_Sep_18_0957,StressSession,3.1.3,60.06632598129716,
11,green,440,1.0,,,,,,0,10,10,10,,,,,,,,,,,,,,,,,,,,,lw,002,2019_Sep_18_0957,StressSession,3.1.3,60.06632598129716,
12,green,440,1.0,,,,,,0,11,11,11,,,,,,,,,,,,,,,,,,,,,lw,002,2019_Sep_18_0957,StressSession,3.1.3,60.06632598129716,
13,green,440,1.0,,,,,,0,12,12,12,,,,,,,,,,,,,,,,,,,,,lw,002,2019_Sep_18_0957,StressSession,3.1.3,60.06632598129716,
14,green,440,1.0,,,,,,0,13,13,13,,,,,,,,,,,,,,,,,,,,,lw,002,2019_Sep_18_0957,StressSession,3.1.3,60.06632598129716,
15,green,440,1.0,,,,,,0,14,14,14,,,,,,,,,,,,,,,,,,,,,lw,002,2019_Sep_18_0957,StressSession,3.1.3,60.06632598129716,
16,green,440,1.0,,,,,,0,15,15,15,,,,,,,,,,,,,,,,,,,,,lw,002,2019_Sep_18_0957,StressSession,3.1.3,60.06632598129716,
17,green,440,1.0,,,,,,0,16,16,16,,,,,,,,,,,,,,,,,,,,,lw,002,2019_Sep_18_0957,StressSession,3.1.3,60.06632598129716,
18,green,440,1.0,,,,,,0,17,17,17,,,,,,,,,,,,,,,,,,,,,lw,002,2019_Sep_18_0957,StressSession,3.1.3,60.06632598129716,
19,green,440,1.0,,,,,,0,18,18,18,,,,,,,,,,,,,,,,,,,,,lw,002,2019_Sep_18_0957,StressSession,3.1.3,60.06632598129716,
20,green,440,1.0,,,,,,0,19,19,19,,,,,,,,,,,,,,,,,,,,,lw,002,2019_Sep_18_0957,StressSession,3.1.3,60.06632598129716,
21,green,440,1.0,,,,,,0,20,20,20,,,,,,,,,,,,,,,,,,,,,lw,002,2019_Sep_18_0957,StressSession,3.1.3,60.06632598129716,
22,green,440,1.0,,,,,,0,21,21,21,,,,,,,,,,,,,,,,,,,,,lw,002,2019_Sep_18_0957,StressSession,3.1.3,60.06632598129716,
23,green,440,1.0,,,,,,0,22,22,22,,,,,,,,,,,,,,,,,,,,,lw,002,2019_Sep_18_0957,StressSession,3.1.3,60.06632598129716,
24,green,440,1.0,,,,,,0,23,23,23,,,,,,,,,,,,,,,,,,,,,lw,002,2019_Sep_18_0957,StressSession,3.1.3,60.06632598129716,
25,green,440,1.0,,,,,,0,24,24,24,,,,,,,,,,,,,,,,,,,,,lw,002,2019_Sep_18_0957,StressSession,3.1.3,60.06632598129716,
26,green,440,1.0,,,,,,0,25,25,25,,,,,,,,,,,,,,,,,,,,,lw,002,2019_Sep_18_0957,StressSession,3.1.3,60.06632598129716,
27,green,440,1.0,,,,,,0,26,26,26,,,,,,,,,,,,,,,,,,,,,lw,002,2019_Sep_18_0957,StressSession,3.1.3,60.06632598129716,
28,green,440,1.0,,,,,,0,27,27,27,,,,,,,,,,,,,,,,,,,,,lw,002,2019_Sep_18_0957,StressSession,3.1.3,60.06632598129716,
29,green,440,1.0,,,,,,0,28,28,28,,,,,,,,,,,,,,,,,,,,,lw,002,2019_Sep_18_0957,StressSession,3.1.3,60.06632598129716,
30,green,440,1.0,,,,,,0,29,29,29,,,,,,,,,,,,,,,,,,,,,lw,002,2019_Sep_18_0957,StressSession,3.1.3,60.06632598129716,
31,green,440,1.0,,,,,,0,30,30,30,,,,,,,,,,,,,,,,,,,,,lw,002,2019_Sep_18_0957,StressSession,3.1.3,60.06632598129716,
32,green,440,1.0,,,,,,0,31,31,31,,,,,,,,,,,,,,,,,,,,,lw,002,2019_Sep_18_0957,StressSession,3.1.3,60.06632598129716,
33,green,440,1.0,,,,,,0,32,32,32,,,,,,,,,,,,,,,,,,,,,lw,002,2019_Sep_18_0957,StressSession,3.1.3,60.06632598129716,
34,green,440,1.0,,,,,,0,33,33,33,,,,,,,,,,,,,,,,,,,,,lw,002,2019_Sep_18_0957,StressSession,3.1.3,60.06632598129716,
35,green,440,1.0,,,,,,0,34,34,34,,,,,,,,,,,,,,,,,,,,,lw,002,2019_Sep_18_0957,StressSession,3.1.3,60.06632598129716,
36,green,440,1.0,,,,,,0,35,35,35,,,,,,,,,,,,,,,,,,,,,lw,002,2019_Sep_18_0957,StressSession,3.1.3,60.06632598129716,
37,green,440,1.0,,,,,,0,36,36,36,,,,,,,,,,,,,,,,,,,,,lw,002,2019_Sep_18_0957,StressSession,3.1.3,60.06632598129716,
38,green,440,1.0,,,,,,0,37,37,37,,,,,,,,,,,,,,,,,,,,,lw,002,2019_Sep_18_0957,StressSession,3.1.3,60.06632598129716,
39,green,440,1.0,,,,,,0,38,38,38,,,,,,,,,,,,,,,,,,,,,lw,002,2019_Sep_18_0957,StressSession,3.1.3,60.06632598129716,
40,green,440,1.0,,,,,,0,39,39,39,,,,,,,,,,,,,,,,,,,,,lw,002,2019_Sep_18_0957,StressSession,3.1.3,60.06632598129716,
41,green,440,1.0,,,,,,0,40,40,40,,,,,,,,,,,,,,,,,,,,,lw,002,2019_Sep_18_0957,StressSession,3.1.3,60.06632598129716,
42,green,440,1.0,,,,,,0,41,41,41,,,,,,,,,,,,,,,,,,,,,lw,002,2019_Sep_18_0957,StressSession,3.1.3,60.06632598129716,
43,green,440,1.0,,,,,,0,42,42,42,,,,,,,,,,,,,,,,,,,,,lw,002,2019_Sep_18_0957,StressSession,3.1.3,60.06632598129716,
44,green,440,1.0,,,,,,0,43,43,43,,,,,,,,,,,,,,,,,,,,,lw,002,2019_Sep_18_0957,StressSession,3.1.3,60.06632598129716,
45,green,440,1.0,,,,,,0,44,44,44,,,,,,,,,,,,,,,,,,,,,lw,002,2019_Sep_18_0957,StressSession,3.1.3,60.06632598129716,
46,green,440,1.0,,,,,,0,45,45,45,,,,,,,,,,,,,,,,,,,,,lw,002,2019_Sep_18_0957,StressSession,3.1.3,60.06632598129716,
47,green,440,1.0,,,,,,0,46,46,46,,,,,,,,,,,,,,,,,,,,,lw,002,2019_Sep_18_0957,StressSession,3.1.3,60.06632598129716,
48,green,440,1.0,,,,,,0,47,47,47,,,,,,,,,,,,,,,,,,,,,lw,002,2019_Sep_18_0957,StressSession,3.1.3,60.06632598129716,
49,green,440,1.0,,,,,,0,48,48,48,,,,,,,,,,,,,,,,,,,,,lw,002,2019_Sep_18_0957,StressSession,3.1.3,60.06632598129716,
50,green,440,1.0,,,,,,0,49,49,49,,,,,,,,,,,,,,,,,,,,,lw,002,2019_Sep_18_0957,StressSession,3.1.3,60.06632598129716,
51,green,440,1.0,,,,,,0,50,50,50,,,,,,,,,,,,,,,,,,,,,lw,002,2019_Sep_18_0957,StressSession,3.1.3,60.06632598129716,
52,green,440,1.0,,,,,,0,51,51,51,,,,,,,,,,,,,,,,,,,,,lw,002,2019_Sep_18_0957,StressSession,3.1.3,60.06632598129716,
53,green,440,1.0,,,,,,0,52,52,52,,,,,,,,,,,,,,,,,,,,,lw,002,2019_Sep_18_0957,StressSession,3.1.3,60.06632598129716,
54,green,440,1.0,,,,,,0,53,53,53,,,,,,,,,,,,,,,,,,,,,lw,002,2019_Sep_18_0957,StressSession,3.1.3,60.06632598129716,
55,green,440,1.0,,,,,,0,54,54,54,,,,,,,,,,,,,,,,,,,,,lw,002,2019_Sep_18_0957,StressSession,3.1.3,60.06632598129716,
56,green,440,1.0,,,,,,0,55,55,55,,,,,,,,,,,,,,,,,,,,,lw,002,2019_Sep_18_0957,StressSession,3.1.3,60.06632598129716,
57,green,440,1.0,,,,,,0,56,56,56,,,,,,,,,,,,,,,,,,,,,lw,002,2019_Sep_18_0957,StressSession,3.1.3,60.06632598129716,
58,green,440,1.0,,,,,,0,57,57,57,,,,,,,,,,,,,,,,,,,,,lw,002,2019_Sep_18_0957,StressSession,3.1.3,60.06632598129716,
59,green,440,1.0,,,,,,0,58,58,58,,,,,,,,,,,,,,,,,,,,,lw,002,2019_Sep_18_0957,StressSession,3.1.3,60.06632598129716,
60,green,440,1.0,,,,,,0,59,59,59,,,,,,,,,,,,,,,,,,,,,lw,002,2019_Sep_18_0957,StressSession,3.1.3,60.06632598129716,
61,green,440,1.0,,,,,,0,60,60,60,,,,,,,,,,,,,,,,,,,,,lw,002,2019_Sep_18_0957,StressSession,3.1.3,60.06632598129716,
62,green,440,1.0,,,,,,0,61,61,61,,,,,,,,,,,,,,,,,,,,,lw,002,2019_Sep_18_0957,StressSession,3.1.3,60.06632598129716,
63,green,440,1.0,,,,,,0,62,62,62,,,,,,,,,,,,,,,,,,,,,lw,002,2019_Sep_18_0957,StressSession,3.1.3,60.06632598129716,
64,green,440,1.0,,,,,,0,63,63,63,,,,,,,,,,,,,,,,,,,,,lw,002,2019_Sep_18_0957,StressSession,3.1.3,60.06632598129716,
65,green,440,1.0,,,,,,0,64,64,64,,,,,,,,,,,,,,,,,,,,,lw,002,2019_Sep_18_0957,StressSession,3.1.3,60.06632598129716,
66,green,440,1.0,,,,,,0,65,65,65,,,,,,,,,,,,,,,,,,,,,lw,002,2019_Sep_18_0957,StressSession,3.1.3,60.06632598129716,
67,green,440,1.0,,,,,,0,66,66,66,,,,,,,,,,,,,,,,,,,,,lw,002,2019_Sep_18_0957,StressSession,3.1.3,60.06632598129716,
68,green,440,1.0,,,,,,0,67,67,67,,,,,,,,,,,,,,,,,,,,,lw,002,2019_Sep_18_0957,StressSession,3.1.3,60.06632598129716,
69,green,440,1.0,,,,,,0,68,68,68,,,,,,,,,,,,,,,,,,,,,lw,002,2019_Sep_18_0957,StressSession,3.1.3,60.06632598129716,
70,green,440,1.0,,,,,,0,69,69,69,,,,,,,,,,,,,,,,,,,,,lw,002,2019_Sep_18_0957,StressSession,3.1.3,60.06632598129716,
71,green,440,1.0,,,,,,0,70,70,70,,,,,,,,,,,,,,,,,,,,,lw,002,2019_Sep_18_0957,StressSession,3.1.3,60.06632598129716,
72,green,440,1.0,,,,,,0,71,71,71,,,,,,,,,,,,,,,,,,,,,lw,002,2019_Sep_18_0957,StressSession,3.1.3,60.06632598129716,
73,green,440,1.0,,,,,,0,72,72,72,,,,,,,,,,,,,,,,,,,,,lw,002,2019_Sep_18_0957,StressSession,3.1.3,60.06632598129716,
74,green,440,1.0,,,,,,0,73,73,73,,,,,,,,,,,,,,,,,,,,,lw,002,2019_Sep_18_0957,StressSession,3.1.3,60.06632598129716,
75,green,440,1.0,,,,,,0,74,74,74,,,,,,,,,,,,,,,,,,,,,lw,002,2019_Sep_18_0957,StressSession,3.1.3,60.06632598129716,
76,green,440,1.0,,,,,,0,75,75,75,,,,,,,,,,,,,,,,,,,,,lw,002,2019_Sep_18_0957,StressSession,3.1.3,60.06632598129716,
77,green,440,1.0,,,,,,0,76,76,76,,,,,,,,,,,,,,,,,,,,,lw,002,2019_Sep_18_0957,StressSession,3.1.3,60.06632598129716,
78,green,440,1.0,,,,,,0,77,77,77,,,,,,,,,,,,,,,,,,,,,lw,002,2019_Sep_18_0957,StressSession,3.1.3,60.06632598129716,
79,green,440,1.0,,,,,,0,78,78,78,,,,,,,,,,,,,,,,,,,,,lw,002,2019_Sep_18_0957,StressSession,3.1.3,60.06632598129716,
80,green,440,1.0,,,,,,0,79,79,79,,,,,,,,,,,,,,,,,,,,,lw,002,2019_Sep_18_0957,StressSession,3.1.3,60.06632598129716,
81,green,440,1.0,,,,,,0,80,80,80,,,,,,,,,,,,,,,,,,,,,lw,002,2019_Sep_18_0957,StressSession,3.1.3,60.06632598129716,
82,green,440,1.0,,,,,,0,81,81,81,,,,,,,,,,,,,,,,,,,,,lw,002,2019_Sep_18_0957,StressSession,3.1.3,60.06632598129716,
83,green,440,1.0,,,,,,0,82,82,82,,,,,,,,,,,,,,,,,,,,,lw,002,2019_Sep_18_0957,StressSession,3.1.3,60.06632598129716,
84,green,440,1.0,,,,,,0,83,83,83,,,,,,,,,,,,,,,,,,,,,lw,002,2019_Sep_18_0957,StressSession,3.1.3,60.06632598129716,
85,green,440,1.0,,,,,,0,84,84,84,,,,,,,,,,,,,,,,,,,,,lw,002,2019_Sep_18_0957,StressSession,3.1.3,60.06632598129716,
86,green,440,1.0,,,,,,0,85,85,85,,,,,,,,,,,,,,,,,,,,,lw,002,2019_Sep_18_0957,StressSession,3.1.3,60.06632598129716,
87,green,440,1.0,,,,,,0,86,86,86,,,,,,,,,,,,,,,,,,,,,lw,002,2019_Sep_18_0957,StressSession,3.1.3,60.06632598129716,
88,green,440,1.0,,,,,,0,87,87,87,,,,,,,,,,,,,,,,,,,,,lw,002,2019_Sep_18_0957,StressSession,3.1.3,60.06632598129716,
89,green,440,1.0,,,,,,0,88,88,88,,,,,,,,,,,,,,,,,,,,,lw,002,2019_Sep_18_0957,StressSession,3.1.3,60.06632598129716,
90,green,440,1.0,,,,,,0,89,89,89,,,,,,,,,,,,,,,,,,,,,lw,002,2019_Sep_18_0957,StressSession,3.1.3,60.06632598129716,
91,green,440,1.0,,,,,,0,90,90,90,,,,,,,,,,,,,,,,,,,,,lw,002,2019_Sep_18_0957,StressSession,3.1.3,60.06632598129716,
92,green,440,1.0,,,,,,0,91,91,91,,,,,,,,,,,,,,,,,,,,,lw,002,2019_Sep_18_0957,StressSession,3.1.3,60.06632598129716,
93,green,440,1.0,,,,,,0,92,92,92,,,,,,,,,,,,,,,,,,,,,lw,002,2019_Sep_18_0957,StressSession,3.1.3,60.06632598129716,
94,green,440,1.0,,,,,,0,93,93,93,,,,,,,,,,,,,,,,,,,,,lw,002,2019_Sep_18_0957,StressSession,3.1.3,60.06632598129716,
95,green,440,1.0,,,,,,0,94,94,94,,,,,,,,,,,,,,,,,,,,,lw,002,2019_Sep_18_0957,StressSession,3.1.3,60.06632598129716,
96,green,440,1.0,,,,,,0,95,95,95,,,,,,,,,,,,,,,,,,,,,lw,002,2019_Sep_18_0957,StressSession,3.1.3,60.06632598129716,
97,green,440,1.0,,,,,,0,96,96,96,,,,,,,,,,,,,,,,,,,,,lw,002,2019_Sep_18_0957,StressSession,3.1.3,60.06632598129716,
98,green,440,1.0,,,,,,0,97,97,97,,,,,,,,,,,,,,,,,,,,,lw,002,2019_Sep_18_0957,StressSession,3.1.3,60.06632598129716,
99,green,440,1.0,,,,,,0,98,98,98,,,,,,,,,,,,,,,,,,,,,lw,002,2019_Sep_18_0957,StressSession,3.1.3,60.06632598129716,
100,green,440,1.0,,,,,,0,99,99,99,,,,,,,,,,,,,,,,,,,,,lw,002,2019_Sep_18_0957,StressSession,3.1.3,60.06632598129716,
101,green,440,1.0,,,,,,0,100,100,100,,,,,,,,,,,,,,,,,,,,,lw,002,2019_Sep_18_0957,StressSession,3.1.3,60.06632598129716,
102,green,440,1.0,,,,,,0,101,101,101,,,,,,,,,,,,,,,,,,,,,lw,002,2019_Sep_18_0957,StressSession,3.1.3,60.06632598129716,
103,green,440,1.0,,,,,,0,102,102,102,,,,,,,,,,,,,,,,,,,,,lw,002,2019_Sep_18_0957,StressSession,3.1.3,60.06632598129716,
104,green,440,1.0,,,,,,0,103,103,103,,,,,,,,,,,,,,,,,,,,,lw,002,2019_Sep_18_0957,StressSession,3.1.3,60.06632598129716,
105,green,440,1.0,,,,,,0,104,104,104,,,,,,,,,,,,,,,,,,,,,lw,002,2019_Sep_18_0957,StressSession,3.1.3,60.06632598129716,
106,green,440,1.0,,,,,,0,105,105,105,,,,,,,,,,,,,,,,,,,,,lw,002,2019_Sep_18_0957,StressSession,3.1.3,60.06632598129716,
107,green,440,1.0,,,,,,0,106,106,106,,,,,,,,,,,,,,,,,,,,,lw,002,2019_Sep_18_0957,StressSession,3.1.3,60.06632598129716,
108,green,440,1.0,,,,,,0,107,107,107,,,,,,,,,,,,,,,,,,,,,lw,002,2019_Sep_18_0957,StressSession,3.1.3,60.06632598129716,
109,green,440,1.0,,,,,,0,108,108,108,,,,,,,,,,,,,,,,,,,,,lw,002,2019_Sep_18_0957,StressSession,3.1.3,60.06632598129716,
110,green,440,1.0,,,,,,0,109,109,109,,,,,,,,,,,,,,,,,,,,,lw,002,2019_Sep_18_0957,StressSession,3.1.3,60.06632598129716,
111,green,440,1.0,,,,,,0,110,110,110,,,,,,,,,,,,,,,,,,,,,lw,002,2019_Sep_18_0957,StressSession,3.1.3,60.06632598129716,
112,green,440,1.0,,,,,,0,111,111,111,,,,,,,,,,,,,,,,,,,,,lw,002,2019_Sep_18_0957,StressSession,3.1.3,60.06632598129716,
113,green,440,1.0,,,,,,0,112,112,112,,,,,,,,,,,,,,,,,,,,,lw,002,2019_Sep_18_0957,StressSession,3.1.3,60.06632598129716,
114,green,440,1.0,,,,,,0,113,113,113,,,,,,,,,,,,,,,,,,,,,lw,002,2019_Sep_18_0957,StressSession,3.1.3,60.06632598129716,
115,green,440,1.0,,,,,,0,114,114,114,,,,,,,,,,,,,,,,,,,,,lw,002,2019_Sep_18_0957,StressSession,3.1.3,60.06632598129716,
116,green,440,1.0,,,,,,0,115,115,115,,,,,,,,,,,,,,,,,,,,,lw,002,2019_Sep_18_0957,StressSession,3.1.3,60.06632598129716,
117,green,440,1.0,,,,,,0,116,116,116,,,,,,,,,,,,,,,,,,,,,lw,002,2019_Sep_18_0957,StressSession,3.1.3,60.06632598129716,
118,green,440,1.0,,,,,,0,117,117,117,,,,,,,,,,,,,,,,,,,,,lw,002,2019_Sep_18_0957,StressSession,3.1.3,60.06632598129716,
119,green,440,1.0,,,,,,0,118,118,118,,,,,,,,,,,,,,,,,,,,,lw,002,2019_Sep_18_0957,StressSession,3.1.3,60.06632598129716,
120,green,440,1.0,,,,,,0,119,119,119,,,,,,,,,,,,,,,,,,,,,lw,002,2019_Sep_18_0957,StressSession,3.1.3,60.06632598129716,
121,green,440,1.0,,,,,,0,120,120,120,,,,,,,,,,,,,,,,,,,,,lw,002,2019_Sep_18_0957,StressSession,3.1.3,60.06632598129716,
122,green,440,1.0,,,,,,0,121,121,121,,,,,,,,,,,,,,,,,,,,,lw,002,2019_Sep_18_0957,StressSession,3.1.3,60.06632598129716,
123,green,440,1.0,,,,,,0,122,122,122,,,,,,,,,,,,,,,,,,,,,lw,002,2019_Sep_18_0957,StressSession,3.1.3,60.06632598129716,
124,green,440,1.0,,,,,,0,123,123,123,,,,,,,,,,,,,,,,,,,,,lw,002,2019_Sep_18_0957,StressSession,3.1.3,60.06632598129716,
125,green,440,1.0,,,,,,0,124,124,124,,,,,,,,,,,,,,,,,,,,,lw,002,2019_Sep_18_0957,StressSession,3.1.3,60.06632598129716,
126,green,440,1.0,,,,,,0,125,125,125,,,,,,,,,,,,,,,,,,,,,lw,002,2019_Sep_18_0957,StressSession,3.1.3,60.06632598129716,
127,green,440,1.0,,,,,,0,126,126,126,,,,,,,,,,,,,,,,,,,,,lw,002,2019_Sep_18_0957,StressSession,3.1.3,60.06632598129716,
128,green,440,1.0,,,,,,0,127,127,127,,,,,,,,,,,,,,,,,,,,,lw,002,2019_Sep_18_0957,StressSession,3.1.3,60.06632598129716,
129,green,440,1.0,,,,,,0,128,128,128,,,,,,,,,,,,,,,,,,,,,lw,002,2019_Sep_18_0957,StressSession,3.1.3,60.06632598129716,
130,green,440,1.0,,,,,,0,129,129,129,,,,,,,,,,,,,,,,,,,,,lw,002,2019_Sep_18_0957,StressSession,3.1.3,60.06632598129716,
131,green,440,1.0,,,,,,0,130,130,130,,,,,,,,,,,,,,,,,,,,,lw,002,2019_Sep_18_0957,StressSession,3.1.3,60.06632598129716,
132,green,440,1.0,,,,,,0,131,131,131,,,,,,,,,,,,,,,,,,,,,lw,002,2019_Sep_18_0957,StressSession,3.1.3,60.06632598129716,
133,green,440,1.0,,,,,,0,132,132,132,,,,,,,,,,,,,,,,,,,,,lw,002,2019_Sep_18_0957,StressSession,3.1.3,60.06632598129716,
134,green,440,1.0,,,,,,0,133,133,133,,,,,,,,,,,,,,,,,,,,,lw,002,2019_Sep_18_0957,StressSession,3.1.3,60.06632598129716,
135,green,440,1.0,,,,,,0,134,134,134,,,,,,,,,,,,,,,,,,,,,lw,002,2019_Sep_18_0957,StressSession,3.1.3,60.06632598129716,
136,green,440,1.0,,,,,,0,135,135,135,,,,,,,,,,,,,,,,,,,,,lw,002,2019_Sep_18_0957,StressSession,3.1.3,60.06632598129716,
137,green,440,1.0,,,,,,0,136,136,136,,,,,,,,,,,,,,,,,,,,,lw,002,2019_Sep_18_0957,StressSession,3.1.3,60.06632598129716,
138,green,440,1.0,,,,,,0,137,137,137,,,,,,,,,,,,,,,,,,,,,lw,002,2019_Sep_18_0957,StressSession,3.1.3,60.06632598129716,
139,green,440,1.0,,,,,,0,138,138,138,,,,,,,,,,,,,,,,,,,,,lw,002,2019_Sep_18_0957,StressSession,3.1.3,60.06632598129716,
140,green,440,1.0,,,,,,0,139,139,139,,,,,,,,,,,,,,,,,,,,,lw,002,2019_Sep_18_0957,StressSession,3.1.3,60.06632598129716,
141,green,440,1.0,,,,,,0,140,140,140,,,,,,,,,,,,,,,,,,,,,lw,002,2019_Sep_18_0957,StressSession,3.1.3,60.06632598129716,
142,green,440,1.0,,,,,,0,141,141,141,,,,,,,,,,,,,,,,,,,,,lw,002,2019_Sep_18_0957,StressSession,3.1.3,60.06632598129716,
143,green,440,1.0,,,,,,0,142,142,142,,,,,,,,,,,,,,,,,,,,,lw,002,2019_Sep_18_0957,StressSession,3.1.3,60.06632598129716,
144,green,440,1.0,,,,,,0,143,143,143,,,,,,,,,,,,,,,,,,,,,lw,002,2019_Sep_18_0957,StressSession,3.1.3,60.06632598129716,
145,green,440,1.0,,,,,,0,144,144,144,,,,,,,,,,,,,,,,,,,,,lw,002,2019_Sep_18_0957,StressSession,3.1.3,60.06632598129716,
146,green,440,1.0,,,,,,0,145,145,145,,,,,,,,,,,,,,,,,,,,,lw,002,2019_Sep_18_0957,StressSession,3.1.3,60.06632598129716,
147,green,440,1.0,,,,,,0,146,146,146,,,,,,,,,,,,,,,,,,,,,lw,002,2019_Sep_18_0957,StressSession,3.1.3,60.06632598129716,
148,green,440,1.0,,,,,,0,147,147,147,,,,,,,,,,,,,,,,,,,,,lw,002,2019_Sep_18_0957,StressSession,3.1.3,60.06632598129716,
149,green,440,1.0,,,,,,0,148,148,148,,,,,,,,,,,,,,,,,,,,,lw,002,2019_Sep_18_0957,StressSession,3.1.3,60.06632598129716,
150,green,440,1.0,,,,,,0,149,149,149,,,,,,,,,,,,,,,,,,,,,lw,002,2019_Sep_18_0957,StressSession,3.1.3,60.06632598129716,
151,green,440,1.0,,,,,,0,150,150,150,,,,,,,,,,,,,,,,,,,,,lw,002,2019_Sep_18_0957,StressSession,3.1.3,60.06632598129716,
152,green,440,1.0,,,,,,0,151,151,151,,,,,,,,,,,,,,,,,,,,,lw,002,2019_Sep_18_0957,StressSession,3.1.3,60.06632598129716,
153,green,440,1.0,,,,,,0,152,152,152,,,,,,,,,,,,,,,,,,,,,lw,002,2019_Sep_18_0957,StressSession,3.1.3,60.06632598129716,
154,green,440,1.0,,,,,,0,153,153,153,,,,,,,,,,,,,,,,,,,,,lw,002,2019_Sep_18_0957,StressSession,3.1.3,60.06632598129716,
155,green,440,1.0,,,,,,0,154,154,154,,,,,,,,,,,,,,,,,,,,,lw,002,2019_Sep_18_0957,StressSession,3.1.3,60.06632598129716,
156,green,440,1.0,,,,,,0,155,155,155,,,,,,,,,,,,,,,,,,,,,lw,002,2019_Sep_18_0957,StressSession,3.1.3,60.06632598129716,
157,green,440,1.0,,,,,,0,156,156,156,,,,,,,,,,,,,,,,,,,,,lw,002,2019_Sep_18_0957,StressSession,3.1.3,60.06632598129716,
158,green,440,1.0,,,,,,0,157,157,157,,,,,,,,,,,,,,,,,,,,,lw,002,2019_Sep_18_0957,StressSession,3.1.3,60.06632598129716,
159,green,440,1.0,,,,,,0,158,158,158,,,,,,,,,,,,,,,,,,,,,lw,002,2019_Sep_18_0957,StressSession,3.1.3,60.06632598129716,
160,green,440,1.0,,,,,,0,159,159,159,,,,,,,,,,,,,,,,,,,,,lw,002,2019_Sep_18_0957,StressSession,3.1.3,60.06632598129716,
161,green,440,1.0,,,,,,0,160,160,160,,,,,,,,,,,,,,,,,,,,,lw,002,2019_Sep_18_0957,StressSession,3.1.3,60.06632598129716,
162,green,440,1.0,,,,,,0,161,161,161,,,,,,,,,,,,,,,,,,,,,lw,002,2019_Sep_18_0957,StressSession,3.1.3,60.06632598129716,
163,green,440,1.0,,,,,,0,162,162,162,,,,,,,,,,,,,,,,,,,,,lw,002,2019_Sep_18_0957,StressSession,3.1.3,60.06632598129716,
164,green,440,1.0,,,,,,0,163,163,163,,,,,,,,,,,,,,,,,,,,,lw,002,2019_Sep_18_0957,StressSession,3.1.3,60.06632598129716,
165,green,440,1.0,,,,,,0,164,164,164,,,,,,,,,,,,,,,,,,,,,lw,002,2019_Sep_18_0957,StressSession,3.1.3,60.06632598129716,
166,green,440,1.0,,,,,,0,165,165,165,,,,,,,,,,,,,,,,,,,,,lw,002,2019_Sep_18_0957,StressSession,3.1.3,60.06632598129716,
167,green,440,1.0,,,,,,0,166,166,166,,,,,,,,,,,,,,,,,,,,,lw,002,2019_Sep_18_0957,StressSession,3.1.3,60.06632598129716,
168,green,440,1.0,,,,,,0,167,167,167,,,,,,,,,,,,,,,,,,,,,lw,002,2019_Sep_18_0957,StressSession,3.1.3,60.06632598129716,
169,green,440,1.0,,,,,,0,168,168,168,,,,,,,,,,,,,,,,,,,,,lw,002,2019_Sep_18_0957,StressSession,3.1.3,60.06632598129716,
170,green,440,1.0,,,,,,0,169,169,169,,,,,,,,,,,,,,,,,,,,,lw,002,2019_Sep_18_0957,StressSession,3.1.3,60.06632598129716,
171,green,440,1.0,,,,,,0,170,170,170,,,,,,,,,,,,,,,,,,,,,lw,002,2019_Sep_18_0957,StressSession,3.1.3,60.06632598129716,
172,green,440,1.0,,,,,,0,171,171,171,,,,,,,,,,,,,,,,,,,,,lw,002,2019_Sep_18_0957,StressSession,3.1.3,60.06632598129716,
173,green,440,1.0,,,,,,0,172,172,172,,,,,,,,,,,,,,,,,,,,,lw,002,2019_Sep_18_0957,StressSession,3.1.3,60.06632598129716,
174,green,440,1.0,,,,,,0,173,173,173,,,,,,,,,,,,,,,,,,,,,lw,002,2019_Sep_18_0957,StressSession,3.1.3,60.06632598129716,
175,green,440,1.0,,,,,,0,174,174,174,,,,,,,,,,,,,,,,,,,,,lw,002,2019_Sep_18_0957,StressSession,3.1.3,60.06632598129716,
176,green,440,1.0,,,,,,0,175,175,175,,,,,,,,,,,,,,,,,,,,,lw,002,2019_Sep_18_0957,StressSession,3.1.3,60.06632598129716,
177,green,440,1.0,,,,,,0,176,176,176,,,,,,,,,,,,,,,,,,,,,lw,002,2019_Sep_18_0957,StressSession,3.1.3,60.06632598129716,
178,green,440,1.0,,,,,,0,177,177,177,,,,,,,,,,,,,,,,,,,,,lw,002,2019_Sep_18_0957,StressSession,3.1.3,60.06632598129716,
179,green,440,1.0,,,,,,0,178,178,178,,,,,,,,,,,,,,,,,,,,,lw,002,2019_Sep_18_0957,StressSession,3.1.3,60.06632598129716,
180,yellow,880,0.5,,,,,,0,179,179,179,,,,,,,,,,,,,,,,,,,,,lw,002,2019_Sep_18_0957,StressSession,3.1.3,60.06632598129716,
181,yellow,880,0.5,,,,,,0,180,180,180,,,,,,,,,,,,,,,,,,,,,lw,002,2019_Sep_18_0957,StressSession,3.1.3,60.06632598129716,
182,yellow,880,0.5,,,,,,0,181,181,181,,,,,,,,,,,,,,,,,,,,,lw,002,2019_Sep_18_0957,StressSession,3.1.3,60.06632598129716,
183,yellow,880,0.5,,,,,,0,182,182,182,,,,,,,,,,,,,,,,,,,,,lw,002,2019_Sep_18_0957,StressSession,3.1.3,60.06632598129716,
184,yellow,880,0.5,,,,,,0,183,183,183,,,,,,,,,,,,,,,,,,,,,lw,002,2019_Sep_18_0957,StressSession,3.1.3,60.06632598129716,
185,yellow,880,0.5,,,,,,0,184,184,184,,,,,,,,,,,,,,,,,,,,,lw,002,2019_Sep_18_0957,StressSession,3.1.3,60.06632598129716,
186,yellow,880,0.5,,,,,,0,185,185,185,,,,,,,,,,,,,,,,,,,,,lw,002,2019_Sep_18_0957,StressSession,3.1.3,60.06632598129716,
187,yellow,880,0.5,,,,,,0,186,186,186,,,,,,,,,,,,,,,,,,,,,lw,002,2019_Sep_18_0957,StressSession,3.1.3,60.06632598129716,
188,yellow,880,0.5,,,,,,0,187,187,187,,,,,,,,,,,,,,,,,,,,,lw,002,2019_Sep_18_0957,StressSession,3.1.3,60.06632598129716,
189,yellow,880,0.5,,,,,,0,188,188,188,,,,,,,,,,,,,,,,,,,,,lw,002,2019_Sep_18_0957,StressSession,3.1.3,60.06632598129716,
190,yellow,880,0.5,,,,,,0,189,189,189,,,,,,,,,,,,,,,,,,,,,lw,002,2019_Sep_18_0957,StressSession,3.1.3,60.06632598129716,
191,yellow,880,0.5,,,,,,0,190,190,190,,,,,,,,,,,,,,,,,,,,,lw,002,2019_Sep_18_0957,StressSession,3.1.3,60.06632598129716,
192,yellow,880,0.5,,,,,,0,191,191,191,,,,,,,,,,,,,,,,,,,,,lw,002,2019_Sep_18_0957,StressSession,3.1.3,60.06632598129716,
193,yellow,880,0.5,,,,,,0,192,192,192,,,,,,,,,,,,,,,,,,,,,lw,002,2019_Sep_18_0957,StressSession,3.1.3,60.06632598129716,
194,yellow,880,0.5,,,,,,0,193,193,193,,,,,,,,,,,,,,,,,,,,,lw,002,2019_Sep_18_0957,StressSession,3.1.3,60.06632598129716,
195,yellow,880,0.5,,,,,,0,194,194,194,,,,,,,,,,,,,,,,,,,,,lw,002,2019_Sep_18_0957,StressSession,3.1.3,60.06632598129716,
196,yellow,880,0.5,,,,,,0,195,195,195,,,,,,,,,,,,,,,,,,,,,lw,002,2019_Sep_18_0957,StressSession,3.1.3,60.06632598129716,
197,yellow,880,0.5,,,,,,0,196,196,196,,,,,,,,,,,,,,,,,,,,,lw,002,2019_Sep_18_0957,StressSession,3.1.3,60.06632598129716,
198,yellow,880,0.5,,,,,,0,197,197,197,,,,,,,,,,,,,,,,,,,,,lw,002,2019_Sep_18_0957,StressSession,3.1.3,60.06632598129716,
199,yellow,880,0.5,,,,,,0,198,198,198,,,,,,,,,,,,,,,,,,,,,lw,002,2019_Sep_18_0957,StressSession,3.1.3,60.06632598129716,
200,yellow,880,0.5,,,,,,0,199,199,199,,,,,,,,,,,,,,,,,,,,,lw,002,2019_Sep_18_0957,StressSession,3.1.3,60.06632598129716,
201,yellow,880,0.5,,,,,,0,200,200,200,,,,,,,,,,,,,,,,,,,,,lw,002,2019_Sep_18_0957,StressSession,3.1.3,60.06632598129716,
202,yellow,880,0.5,,,,,,0,201,201,201,,,,,,,,,,,,,,,,,,,,,lw,002,2019_Sep_18_0957,StressSession,3.1.3,60.06632598129716,
203,yellow,880,0.5,,,,,,0,202,202,202,,,,,,,,,,,,,,,,,,,,,lw,002,2019_Sep_18_0957,StressSession,3.1.3,60.06632598129716,
204,yellow,880,0.5,,,,,,0,203,203,203,,,,,,,,,,,,,,,,,,,,,lw,002,2019_Sep_18_0957,StressSession,3.1.3,60.06632598129716,
205,yellow,880,0.5,,,,,,0,204,204,204,,,,,,,,,,,,,,,,,,,,,lw,002,2019_Sep_18_0957,StressSession,3.1.3,60.06632598129716,
206,yellow,880,0.5,,,,,,0,205,205,205,,,,,,,,,,,,,,,,,,,,,lw,002,2019_Sep_18_0957,StressSession,3.1.3,60.06632598129716,
207,yellow,880,0.5,,,,,,0,206,206,206,,,,,,,,,,,,,,,,,,,,,lw,002,2019_Sep_18_0957,StressSession,3.1.3,60.06632598129716,
208,yellow,880,0.5,,,,,,0,207,207,207,,,,,,,,,,,,,,,,,,,,,lw,002,2019_Sep_18_0957,StressSession,3.1.3,60.06632598129716,
209,yellow,880,0.5,,,,,,0,208,208,208,,,,,,,,,,,,,,,,,,,,,lw,002,2019_Sep_18_0957,StressSession,3.1.3,60.06632598129716,
210,yellow,880,0.5,,,,,,0,209,209,209,,,,,,,,,,,,,,,,,,,,,lw,002,2019_Sep_18_0957,StressSession,3.1.3,60.06632598129716,
211,yellow,880,0.5,,,,,,0,210,210,210,,,,,,,,,,,,,,,,,,,,,lw,002,2019_Sep_18_0957,StressSession,3.1.3,60.06632598129716,
212,yellow,880,0.5,,,,,,0,211,211,211,,,,,,,,,,,,,,,,,,,,,lw,002,2019_Sep_18_0957,StressSession,3.1.3,60.06632598129716,
213,yellow,880,0.5,,,,,,0,212,212,212,,,,,,,,,,,,,,,,,,,,,lw,002,2019_Sep_18_0957,StressSession,3.1.3,60.06632598129716,
214,yellow,880,0.5,,,,,,0,213,213,213,,,,,,,,,,,,,,,,,,,,,lw,002,2019_Sep_18_0957,StressSession,3.1.3,60.06632598129716,
215,yellow,880,0.5,,,,,,0,214,214,214,,,,,,,,,,,,,,,,,,,,,lw,002,2019_Sep_18_0957,StressSession,3.1.3,60.06632598129716,
216,yellow,880,0.5,,,,,,0,215,215,215,,,,,,,,,,,,,,,,,,,,,lw,002,2019_Sep_18_0957,StressSession,3.1.3,60.06632598129716,
217,yellow,880,0.5,,,,,,0,216,216,216,,,,,,,,,,,,,,,,,,,,,lw,002,2019_Sep_18_0957,StressSession,3.1.3,60.06632598129716,
218,yellow,880,0.5,,,,,,0,217,217,217,,,,,,,,,,,,,,,,,,,,,lw,002,2019_Sep_18_0957,StressSession,3.1.3,60.06632598129716,
219,yellow,880,0.5,,,,,,0,218,218,218,,,,,,,,,,,,,,,,,,,,,lw,002,2019_Sep_18_0957,StressSession,3.1.3,60.06632598129716,
220,yellow,880,0.5,,,,,,0,219,219,219,,,,,,,,,,,,,,,,,,,,,lw,002,2019_Sep_18_0957,StressSession,3.1.3,60.06632598129716,
221,yellow,880,0.5,,,,,,0,220,220,220,,,,,,,,,,,,,,,,,,,,,lw,002,2019_Sep_18_0957,StressSession,3.1.3,60.06632598129716,
222,yellow,880,0.5,,,,,,0,221,221,221,,,,,,,,,,,,,,,,,,,,,lw,002,2019_Sep_18_0957,StressSession,3.1.3,60.06632598129716,
223,yellow,880,0.5,,,,,,0,222,222,222,,,,,,,,,,,,,,,,,,,,,lw,002,2019_Sep_18_0957,StressSession,3.1.3,60.06632598129716,
224,yellow,880,0.5,,,,,,0,223,223,223,,,,,,,,,,,,,,,,,,,,,lw,002,2019_Sep_18_0957,StressSession,3.1.3,60.06632598129716,
225,yellow,880,0.5,,,,,,0,224,224,224,,,,,,,,,,,,,,,,,,,,,lw,002,2019_Sep_18_0957,StressSession,3.1.3,60.06632598129716,
226,yellow,880,0.5,,,,,,0,225,225,225,,,,,,,,,,,,,,,,,,,,,lw,002,2019_Sep_18_0957,StressSession,3.1.3,60.06632598129716,
227,yellow,880,0.5,,,,,,0,226,226,226,,,,,,,,,,,,,,,,,,,,,lw,002,2019_Sep_18_0957,StressSession,3.1.3,60.06632598129716,
228,yellow,880,0.5,,,,,,0,227,227,227,,,,,,,,,,,,,,,,,,,,,lw,002,2019_Sep_18_0957,StressSession,3.1.3,60.06632598129716,
229,yellow,880,0.5,,,,,,0,228,228,228,,,,,,,,,,,,,,,,,,,,,lw,002,2019_Sep_18_0957,StressSession,3.1.3,60.06632598129716,
230,yellow,880,0.5,,,,,,0,229,229,229,,,,,,,,,,,,,,,,,,,,,lw,002,2019_Sep_18_0957,StressSession,3.1.3,60.06632598129716,
231,yellow,880,0.5,,,,,,0,230,230,230,,,,,,,,,,,,,,,,,,,,,lw,002,2019_Sep_18_0957,StressSession,3.1.3,60.06632598129716,
232,yellow,880,0.5,,,,,,0,231,231,231,,,,,,,,,,,,,,,,,,,,,lw,002,2019_Sep_18_0957,StressSession,3.1.3,60.06632598129716,
233,yellow,880,0.5,,,,,,0,232,232,232,,,,,,,,,,,,,,,,,,,,,lw,002,2019_Sep_18_0957,StressSession,3.1.3,60.06632598129716,
234,yellow,880,0.5,,,,,,0,233,233,233,,,,,,,,,,,,,,,,,,,,,lw,002,2019_Sep_18_0957,StressSession,3.1.3,60.06632598129716,
235,yellow,880,0.5,,,,,,0,234,234,234,,,,,,,,,,,,,,,,,,,,,lw,002,2019_Sep_18_0957,StressSession,3.1.3,60.06632598129716,
236,yellow,880,0.5,,,,,,0,235,235,235,,,,,,,,,,,,,,,,,,,,,lw,002,2019_Sep_18_0957,StressSession,3.1.3,60.06632598129716,
237,yellow,880,0.5,,,,,,0,236,236,236,,,,,,,,,,,,,,,,,,,,,lw,002,2019_Sep_18_0957,StressSession,3.1.3,60.06632598129716,
238,yellow,880,0.5,,,,,,0,237,237,237,,,,,,,,,,,,,,,,,,,,,lw,002,2019_Sep_18_0957,StressSession,3.1.3,60.06632598129716,
239,yellow,880,0.5,,,,,,0,238,238,238,,,,,,,,,,,,,,,,,,,,,lw,002,2019_Sep_18_0957,StressSession,3.1.3,60.06632598129716,
240,red,1760,0.5,,,,,,0,239,239,239,,,,,,,,,,,,,,,,,,,,,lw,002,2019_Sep_18_0957,StressSession,3.1.3,60.06632598129716,
241,red,1760,0.5,,,,,,0,240,240,240,,,,,,,,,,,,,,,,,,,,,lw,002,2019_Sep_18_0957,StressSession,3.1.3,60.06632598129716,
242,red,1760,0.5,,,,,,0,241,241,241,,,,,,,,,,,,,,,,,,,,,lw,002,2019_Sep_18_0957,StressSession,3.1.3,60.06632598129716,
243,red,1760,0.5,,,,,,0,242,242,242,,,,,,,,,,,,,,,,,,,,,lw,002,2019_Sep_18_0957,StressSession,3.1.3,60.06632598129716,
244,red,1760,0.5,,,,,,0,243,243,243,,,,,,,,,,,,,,,,,,,,,lw,002,2019_Sep_18_0957,StressSession,3.1.3,60.06632598129716,
245,red,1760,0.5,,,,,,0,244,244,244,,,,,,,,,,,,,,,,,,,,,lw,002,2019_Sep_18_0957,StressSession,3.1.3,60.06632598129716,
246,red,1760,0.5,,,,,,0,245,245,245,,,,,,,,,,,,,,,,,,,,,lw,002,2019_Sep_18_0957,StressSession,3.1.3,60.06632598129716,
247,red,1760,0.5,,,,,,0,246,246,246,,,,,,,,,,,,,,,,,,,,,lw,002,2019_Sep_18_0957,StressSession,3.1.3,60.06632598129716,
248,red,1760,0.5,,,,,,0,247,247,247,,,,,,,,,,,,,,,,,,,,,lw,002,2019_Sep_18_0957,StressSession,3.1.3,60.06632598129716,
249,red,1760,0.5,,,,,,0,248,248,248,,,,,,,,,,,,,,,,,,,,,lw,002,2019_Sep_18_0957,StressSession,3.1.3,60.06632598129716,
250,red,1760,0.5,,,,,,0,249,249,249,,,,,,,,,,,,,,,,,,,,,lw,002,2019_Sep_18_0957,StressSession,3.1.3,60.06632598129716,
251,red,1760,0.5,,,,,,0,250,250,250,,,,,,,,,,,,,,,,,,,,,lw,002,2019_Sep_18_0957,StressSession,3.1.3,60.06632598129716,
252,red,1760,0.5,,,,,,0,251,251,251,,,,,,,,,,,,,,,,,,,,,lw,002,2019_Sep_18_0957,StressSession,3.1.3,60.06632598129716,
253,red,1760,0.5,,,,,,0,252,252,252,,,,,,,,,,,,,,,,,,,,,lw,002,2019_Sep_18_0957,StressSession,3.1.3,60.06632598129716,
254,red,1760,0.5,,,,,,0,253,253,253,,,,,,,,,,,,,,,,,,,,,lw,002,2019_Sep_18_0957,StressSession,3.1.3,60.06632598129716,
255,red,1760,0.5,,,,,,0,254,254,254,,,,,,,,,,,,,,,,,,,,,lw,002,2019_Sep_18_0957,StressSession,3.1.3,60.06632598129716,
256,red,1760,0.5,,,,,,0,255,255,255,,,,,,,,,,,,,,,,,,,,,lw,002,2019_Sep_18_0957,StressSession,3.1.3,60.06632598129716,
257,red,1760,0.5,,,,,,0,256,256,256,,,,,,,,,,,,,,,,,,,,,lw,002,2019_Sep_18_0957,StressSession,3.1.3,60.06632598129716,
258,red,1760,0.5,,,,,,0,257,257,257,,,,,,,,,,,,,,,,,,,,,lw,002,2019_Sep_18_0957,StressSession,3.1.3,60.06632598129716,
259,red,1760,0.5,,,,,,0,258,258,258,,,,,,,,,,,,,,,,,,,,,lw,002,2019_Sep_18_0957,StressSession,3.1.3,60.06632598129716,
260,red,1760,0.5,,,,,,0,259,259,259,,,,,,,,,,,,,,,,,,,,,lw,002,2019_Sep_18_0957,StressSession,3.1.3,60.06632598129716,
261,red,1760,0.5,,,,,,0,260,260,260,,,,,,,,,,,,,,,,,,,,,lw,002,2019_Sep_18_0957,StressSession,3.1.3,60.06632598129716,
262,red,1760,0.5,,,,,,0,261,261,261,,,,,,,,,,,,,,,,,,,,,lw,002,2019_Sep_18_0957,StressSession,3.1.3,60.06632598129716,
263,red,1760,0.5,,,,,,0,262,262,262,,,,,,,,,,,,,,,,,,,,,lw,002,2019_Sep_18_0957,StressSession,3.1.3,60.06632598129716,
264,red,1760,0.5,,,,,,0,263,263,263,,,,,,,,,,,,,,,,,,,,,lw,002,2019_Sep_18_0957,StressSession,3.1.3,60.06632598129716,
265,red,1760,0.5,,,,,,0,264,264,264,,,,,,,,,,,,,,,,,,,,,lw,002,2019_Sep_18_0957,StressSession,3.1.3,60.06632598129716,
266,red,1760,0.5,,,,,,0,265,265,265,,,,,,,,,,,,,,,,,,,,,lw,002,2019_Sep_18_0957,StressSession,3.1.3,60.06632598129716,
267,red,1760,0.5,,,,,,0,266,266,266,,,,,,,,,,,,,,,,,,,,,lw,002,2019_Sep_18_0957,StressSession,3.1.3,60.06632598129716,
268,red,1760,0.5,,,,,,0,267,267,267,,,,,,,,,,,,,,,,,,,,,lw,002,2019_Sep_18_0957,StressSession,3.1.3,60.06632598129716,
269,red,1760,0.5,,,,,,0,268,268,268,,,,,,,,,,,,,,,,,,,,,lw,002,2019_Sep_18_0957,StressSession,3.1.3,60.06632598129716,
270,red,1760,0.5,,,,,,0,269,269,269,,,,,,,,,,,,,,,,,,,,,lw,002,2019_Sep_18_0957,StressSession,3.1.3,60.06632598129716,
271,red,1760,0.5,,,,,,0,270,270,270,,,,,,,,,,,,,,,,,,,,,lw,002,2019_Sep_18_0957,StressSession,3.1.3,60.06632598129716,
272,red,1760,0.5,,,,,,0,271,271,271,,,,,,,,,,,,,,,,,,,,,lw,002,2019_Sep_18_0957,StressSession,3.1.3,60.06632598129716,
273,red,1760,0.5,,,,,,0,272,272,272,,,,,,,,,,,,,,,,,,,,,lw,002,2019_Sep_18_0957,StressSession,3.1.3,60.06632598129716,
274,red,1760,0.5,,,,,,0,273,273,273,,,,,,,,,,,,,,,,,,,,,lw,002,2019_Sep_18_0957,StressSession,3.1.3,60.06632598129716,
275,red,1760,0.5,,,,,,0,274,274,274,,,,,,,,,,,,,,,,,,,,,lw,002,2019_Sep_18_0957,StressSession,3.1.3,60.06632598129716,
276,red,1760,0.5,,,,,,0,275,275,275,,,,,,,,,,,,,,,,,,,,,lw,002,2019_Sep_18_0957,StressSession,3.1.3,60.06632598129716,
277,red,1760,0.5,,,,,,0,276,276,276,,,,,,,,,,,,,,,,,,,,,lw,002,2019_Sep_18_0957,StressSession,3.1.3,60.06632598129716,
278,red,1760,0.5,,,,,,0,277,277,277,,,,,,,,,,,,,,,,,,,,,lw,002,2019_Sep_18_0957,StressSession,3.1.3,60.06632598129716,
279,red,1760,0.5,,,,,,0,278,278,278,,,,,,,,,,,,,,,,,,,,,lw,002,2019_Sep_18_0957,StressSession,3.1.3,60.06632598129716,
280,red,1760,0.5,,,,,,0,279,279,279,,,,,,,,,,,,,,,,,,,,,lw,002,2019_Sep_18_0957,StressSession,3.1.3,60.06632598129716,
281,red,1760,0.5,,,,,,0,280,280,280,,,,,,,,,,,,,,,,,,,,,lw,002,2019_Sep_18_0957,StressSession,3.1.3,60.06632598129716,
282,red,1760,0.5,,,,,,0,281,281,281,,,,,,,,,,,,,,,,,,,,,lw,002,2019_Sep_18_0957,StressSession,3.1.3,60.06632598129716,
283,red,1760,0.5,,,,,,0,282,282,282,,,,,,,,,,,,,,,,,,,,,lw,002,2019_Sep_18_0957,StressSession,3.1.3,60.06632598129716,
284,red,1760,0.5,,,,,,0,283,283,283,,,,,,,,,,,,,,,,,,,,,lw,002,2019_Sep_18_0957,StressSession,3.1.3,60.06632598129716,
285,red,1760,0.5,,,,,,0,284,284,284,,,,,,,,,,,,,,,,,,,,,lw,002,2019_Sep_18_0957,StressSession,3.1.3,60.06632598129716,
286,red,1760,0.5,,,,,,0,285,285,285,,,,,,,,,,,,,,,,,,,,,lw,002,2019_Sep_18_0957,StressSession,3.1.3,60.06632598129716,
287,red,1760,0.5,,,,,,0,286,286,286,,,,,,,,,,,,,,,,,,,,,lw,002,2019_Sep_18_0957,StressSession,3.1.3,60.06632598129716,
288,red,1760,0.5,,,,,,0,287,287,287,,,,,,,,,,,,,,,,,,,,,lw,002,2019_Sep_18_0957,StressSession,3.1.3,60.06632598129716,
289,red,1760,0.5,,,,,,0,288,288,288,,,,,,,,,,,,,,,,,,,,,lw,002,2019_Sep_18_0957,StressSession,3.1.3,60.06632598129716,
290,red,1760,0.5,,,,,,0,289,289,289,,,,,,,,,,,,,,,,,,,,,lw,002,2019_Sep_18_0957,StressSession,3.1.3,60.06632598129716,
291,red,1760,0.5,,,,,,0,290,290,290,,,,,,,,,,,,,,,,,,,,,lw,002,2019_Sep_18_0957,StressSession,3.1.3,60.06632598129716,
292,red,1760,0.5,,,,,,0,291,291,291,,,,,,,,,,,,,,,,,,,,,lw,002,2019_Sep_18_0957,StressSession,3.1.3,60.06632598129716,
293,red,1760,0.5,,,,,,0,292,292,292,,,,,,,,,,,,,,,,,,,,,lw,002,2019_Sep_18_0957,StressSession,3.1.3,60.06632598129716,
294,red,1760,0.5,,,,,,0,293,293,293,,,,,,,,,,,,,,,,,,,,,lw,002,2019_Sep_18_0957,StressSession,3.1.3,60.06632598129716,
295,red,1760,0.5,,,,,,0,294,294,294,,,,,,,,,,,,,,,,,,,,,lw,002,2019_Sep_18_0957,StressSession,3.1.3,60.06632598129716,
296,red,1760,0.5,,,,,,0,295,295,295,,,,,,,,,,,,,,,,,,,,,lw,002,2019_Sep_18_0957,StressSession,3.1.3,60.06632598129716,
297,red,1760,0.5,,,,,,0,296,296,296,,,,,,,,,,,,,,,,,,,,,lw,002,2019_Sep_18_0957,StressSession,3.1.3,60.06632598129716,
298,red,1760,0.5,,,,,,0,297,297,297,,,,,,,,,,,,,,,,,,,,,lw,002,2019_Sep_18_0957,StressSession,3.1.3,60.06632598129716,
299,red,1760,0.5,,,,,,0,298,298,298,,,,,,,,,,,,,,,,,,,,,lw,002,2019_Sep_18_0957,StressSession,3.1.3,60.06632598129716,
300,red,1760,0.5,,,,,,0,299,299,299,,,,,,,,,,,,,,,,,,,,,lw,002,2019_Sep_18_0957,StressSession,3.1.3,60.06632598129716,
,,,,,,,,,,,,,,,,,,,2019-09-18_10:05:04,10,22.315,,,,,,,,,,,,lw,002,2019_Sep_18_0957,StressSession,3.1.3,60.06632598129716,
,,,,,,,,,,,,,,,,,,,,,,10,22.695,,,,,,,,,,lw,002,2019_Sep_18_0957,StressSession,3.1.3,60.06632598129716,
,,,,blue,purple,blue,purple,right,,,,,0,0,0,15,,,,,,,,2019-09-18_10:08:02,right,1.290940765063624,651.3721801624065,None,,,,,lw,002,2019_Sep_18_0957,StressSession,3.1.3,60.06632598129716,
,,,,black,cyan,black,cyan,right,,,,,0,1,1,104,,,,,,,,,right,1.7697968897732608,653.2138822708207,None,,,,,lw,002,2019_Sep_18_0957,StressSession,3.1.3,60.06632598129716,
,,,,yellow,green,green,yellow,left,,,,,0,2,2,167,,,,,,,,,left,1.3187815946398587,655.5284466957255,None,,,,,lw,002,2019_Sep_18_0957,StressSession,3.1.3,60.06632598129716,
,,,,white,blue,blue,white,left,,,,,0,3,3,202,,,,,,,,,left,1.0664413299696207,657.3886362550306,None,,,,,lw,002,2019_Sep_18_0957,StressSession,3.1.3,60.06632598129716,
,,,,purple,green,purple,green,right,,,,,0,4,4,75,,,,,,,,,left,1.0262570442605465,659.0050973823172,None,,,,,lw,002,2019_Sep_18_0957,StressSession,3.1.3,60.06632598129716,
,,,,cyan,red,cyan,red,right,,,,,0,5,5,46,,,,,,,,,right,1.4329229372392547,660.5667054364117,None,,,,,lw,002,2019_Sep_18_0957,StressSession,3.1.3,60.06632598129716,
,,,,blue,red,blue,red,right,,,,,0,6,6,19,,,,,,,,,right,1.5426964968992252,662.520828142227,None,,,,,lw,002,2019_Sep_18_0957,StressSession,3.1.3,60.06632598129716,
,,,,black,orange,black,orange,right,,,,,0,7,7,106,,,,,,,,,right,1.3340690482609716,664.5936617867419,None,,,,,lw,002,2019_Sep_18_0957,StressSession,3.1.3,60.06632598129716,
,,,,brown,purple,brown,purple,right,,,,,0,8,8,89,,,,,,,,,right,1.4026949097005854,666.4606199802711,None,,,,,lw,002,2019_Sep_18_0957,StressSession,3.1.3,60.06632598129716,
,,,,blue,white,white,blue,left,,,,,0,9,9,127,,,,,,,,,left,1.3280219067546568,668.391550385877,None,,,,,lw,002,2019_Sep_18_0957,StressSession,3.1.3,60.06632598129716,
,,,,green,black,black,green,left,,,,,0,10,10,137,,,,,,,,,left,1.2028230802575308,670.2601815379785,None,,,,,lw,002,2019_Sep_18_0957,StressSession,3.1.3,60.06632598129716,
,,,,magenta,blue,blue,magenta,left,,,,,0,11,11,148,,,,,,,,,left,1.7239422089028267,672.0193087835232,None,,,,,lw,002,2019_Sep_18_0957,StressSession,3.1.3,60.06632598129716,
,,,,brown,magenta,magenta,brown,left,,,,,0,12,12,195,,,,,,,,,left,1.9499208960673968,674.2733045134469,None,,,,,lw,002,2019_Sep_18_0957,StressSession,3.1.3,60.06632598129716,
,,,,green,magenta,green,magenta,right,,,,,0,13,13,20,,,,,,,,,right,1.3514330867774333,676.7520970648775,None,,,,,lw,002,2019_Sep_18_0957,StressSession,3.1.3,60.06632598129716,
,,,,blue,yellow,yellow,blue,left,,,,,0,14,14,123,,,,,,,,,left,1.463264884680484,678.6321880471996,None,,,,,lw,002,2019_Sep_18_0957,StressSession,3.1.3,60.06632598129716,
,,,,cyan,orange,orange,cyan,left,,,,,0,15,15,151,,,,,,,,,left,1.0472148930434741,680.6323612737183,None,,,,,lw,002,2019_Sep_18_0957,StressSession,3.1.3,60.06632598129716,
,,,,blue,cyan,blue,cyan,right,,,,,0,16,16,12,,,,,,,,,right,0.858727800552515,682.2042528390375,None,,,,,lw,002,2019_Sep_18_0957,StressSession,3.1.3,60.06632598129716,
,,,,blue,black,blue,black,right,,,,,0,17,17,18,,,,,,,,,right,0.9275170751857331,683.5834674487746,None,,,,,lw,002,2019_Sep_18_0957,StressSession,3.1.3,60.06632598129716,
,,,,blue,orange,orange,blue,left,,,,,0,18,18,124,,,,,,,,,left,1.0068838341258015,685.0403468455706,None,,,,,lw,002,2019_Sep_18_0957,StressSession,3.1.3,60.06632598129716,
,,,,black,cyan,cyan,black,left,,,,,0,19,19,214,,,,,,,,,left,1.112308384163498,686.5750292693083,None,,,,,lw,002,2019_Sep_18_0957,StressSession,3.1.3,60.06632598129716,
,,,,white,purple,white,purple,right,,,,,0,20,20,98,,,,,,,,,right,1.038139700787724,688.2251040212445,None,,,,,lw,002,2019_Sep_18_0957,StressSession,3.1.3,60.06632598129716,
,,,,white,cyan,cyan,white,left,,,,,0,21,21,205,,,,,,,,,left,0.8615446514818359,689.801574142657,None,,,,,lw,002,2019_Sep_18_0957,StressSession,3.1.3,60.06632598129716,
,,,,magenta,yellow,yellow,magenta,left,,,,,0,22,22,141,,,,,,,,,left,0.9647983233717241,691.2107356068391,None,,,,,lw,002,2019_Sep_18_0957,StressSession,3.1.3,60.06632598129716,
,,,,green,magenta,magenta,green,left,,,,,0,23,23,130,,,,,,,,,left,2.1074158016717774,692.7076021695129,None,,,,,lw,002,2019_Sep_18_0957,StressSession,3.1.3,60.06632598129716,
,,,,magenta,brown,magenta,brown,right,,,,,0,24,24,34,,,,,,,,,right,1.1953794599430694,695.3477462632568,None,,,,,lw,002,2019_Sep_18_0957,StressSession,3.1.3,60.06632598129716,
,,,,brown,black,black,brown,left,,,,,0,25,25,191,,,,,,,,,left,1.0278288829190387,697.0833804088488,None,,,,,lw,002,2019_Sep_18_0957,StressSession,3.1.3,60.06632598129716,
,,,,black,red,red,black,left,,,,,0,26,26,210,,,,,,,,,left,0.9600247807788946,698.6470590745098,None,,,,,lw,002,2019_Sep_18_0957,StressSession,3.1.3,60.06632598129716,
,,,,magenta,purple,magenta,purple,right,,,,,0,27,27,33,,,,,,,,,right,1.7337418805404923,700.1533297891588,None,,,,,lw,002,2019_Sep_18_0957,StressSession,3.1.3,60.06632598129716,
,,,,cyan,red,red,cyan,left,,,,,0,28,28,156,,,,,,,,,left,1.6191969116184737,702.4282283279122,None,,,,,lw,002,2019_Sep_18_0957,StressSession,3.1.3,60.06632598129716,
,,,,orange,magenta,orange,magenta,right,,,,,0,29,29,67,,,,,,,,,right,1.8404199761748714,704.5831197157381,None,,,,,lw,002,2019_Sep_18_0957,StressSession,3.1.3,60.06632598129716,
,,,,white,yellow,white,yellow,right,,,,,0,30,30,96,,,,,,,,,right,1.1436785973946826,706.9595025412245,None,,,,,lw,002,2019_Sep_18_0957,StressSession,3.1.3,60.06632598129716,
,,,,cyan,green,green,cyan,left,,,,,0,31,31,158,,,,,,,,,left,0.8463992777392377,708.640832733156,None,,,,,lw,002,2019_Sep_18_0957,StressSession,3.1.3,60.06632598129716,
,,,,yellow,purple,yellow,purple,right,,,,,0,32,32,51,,,,,,,,,right,0.8675862463264821,710.0274636565646,None,,,,,lw,002,2019_Sep_18_0957,StressSession,3.1.3,60.06632598129716,
,,,,orange,red,orange,red,right,,,,,0,33,33,64,,,,,,,,,right,0.94311002187942,711.424339264564,None,,,,,lw,002,2019_Sep_18_0957,StressSession,3.1.3,60.06632598129716,
,,,,magenta,white,magenta,white,right,,,,,0,34,34,35,,,,,,,,,right,1.1845434158562966,712.9104064764533,None,,,,,lw,002,2019_Sep_18_0957,StressSession,3.1.3,60.06632598129716,
,,,,black,brown,black,brown,right,,,,,0,35,35,108,,,,,,,,,right,1.1488489396488148,714.6346959917264,None,,,,,lw,002,2019_Sep_18_0957,StressSession,3.1.3,60.06632598129716,
,,,,purple,cyan,purple,cyan,right,,,,,0,36,36,77,,,,,,,,,right,1.015830173158065,716.3196524205632,None,,,,,lw,002,2019_Sep_18_0957,StressSession,3.1.3,60.06632598129716,
,,,,black,white,black,white,right,,,,,0,37,37,109,,,,,,,,,right,0.972797463212828,717.8662746741124,None,,,,,lw,002,2019_Sep_18_0957,StressSession,3.1.3,60.06632598129716,
,,,,green,red,red,green,left,,,,,0,38,38,138,,,,,,,,,left,1.4413436233867287,719.3816389276681,None,,,,,lw,002,2019_Sep_18_0957,StressSession,3.1.3,60.06632598129716,
,,,,white,red,red,white,left,,,,,0,39,39,201,,,,,,,,,right,1.483080121105104,721.3560372428483,None,,,,,lw,002,2019_Sep_18_0957,StressSession,3.1.3,60.06632598129716,
,,,,yellow,cyan,cyan,yellow,left,,,,,0,40,40,169,,,,,,,,,left,1.1071324952467876,723.3799041024818,None,,,,,lw,002,2019_Sep_18_0957,StressSession,3.1.3,60.06632598129716,
,,,,blue,cyan,cyan,blue,left,,,,,0,41,41,122,,,,,,,,,left,1.0311253067729922,725.0241454727293,None,,,,,lw,002,2019_Sep_18_0957,StressSession,3.1.3,60.06632598129716,
,,,,red,magenta,magenta,red,left,,,,,0,42,42,112,,,,,,,,,left,1.838501684478615,726.5925665343434,None,,,,,lw,002,2019_Sep_18_0957,StressSession,3.1.3,60.06632598129716,
,,,,black,magenta,black,magenta,right,,,,,0,43,43,103,,,,,,,,,right,1.1754396369583446,728.9756045008176,None,,,,,lw,002,2019_Sep_18_0957,StressSession,3.1.3,60.06632598129716,
,,,,black,purple,purple,black,left,,,,,0,44,44,217,,,,,,,,,left,1.8656619813018551,730.6858165881031,None,,,,,lw,002,2019_Sep_18_0957,StressSession,3.1.3,60.06632598129716,
,,,,white,brown,white,brown,right,,,,,0,45,45,99,,,,,,,,,right,1.0799965184028224,733.0872447255515,None,,,,,lw,002,2019_Sep_18_0957,StressSession,3.1.3,60.06632598129716,
,,,,cyan,yellow,cyan,yellow,right,,,,,0,46,46,40,,,,,,,,,right,1.7179031740561186,734.7051219582959,None,,,,,lw,002,2019_Sep_18_0957,StressSession,3.1.3,60.06632598129716,
,,,,brown,magenta,brown,magenta,right,,,,,0,47,47,85,,,,,,,,,right,1.6360288972555281,736.9552337448672,None,,,,,lw,002,2019_Sep_18_0957,StressSession,3.1.3,60.06632598129716,
,,,,magenta,green,green,magenta,left,,,,,0,48,48,149,,,,,,,,,left,1.0762951882284142,739.130672528493,None,,,,,lw,002,2019_Sep_18_0957,StressSession,3.1.3,60.06632598129716,
,,,,brown,purple,purple,brown,left,,,,,0,49,49,199,,,,,,,,,left,1.2407434745655337,740.7504629329383,None,,,,,lw,002,2019_Sep_18_0957,StressSession,3.1.3,60.06632598129716,
,,,,yellow,red,yellow,red,right,,,,,0,50,50,55,,,,,,,,,right,0.7330767077746714,742.5299481344446,None,,,,,lw,002,2019_Sep_18_0957,StressSession,3.1.3,60.06632598129716,
,,,,red,white,white,red,left,,,,,0,51,51,118,,,,,,,,,left,0.7728539538311452,743.7866762353697,None,,,,,lw,002,2019_Sep_18_0957,StressSession,3.1.3,60.06632598129716,
,,,,brown,blue,blue,brown,left,,,,,0,52,52,193,,,,,,,,,left,0.8881131621433269,745.0948888790281,None,,,,,lw,002,2019_Sep_18_0957,StressSession,3.1.3,60.06632598129716,
,,,,brown,orange,brown,orange,right,,,,,0,53,53,88,,,,,,,,,right,1.4613866996169236,746.5216481948605,None,,,,,lw,002,2019_Sep_18_0957,StressSession,3.1.3,60.06632598129716,
,,,,blue,green,blue,green,right,,,,,0,54,54,10,,,,,,,,,right,0.80413072714191,748.5233279800937,None,,,,,lw,002,2019_Sep_18_0957,StressSession,3.1.3,60.06632598129716,
,,,,magenta,black,black,magenta,left,,,,,0,55,55,146,,,,,,,,,left,0.7217913840713663,749.8612579317269,None,,,,,lw,002,2019_Sep_18_0957,StressSession,3.1.3,60.06632598129716,
,,,,white,purple,purple,white,left,,,,,0,56,56,208,,,,,,,,,left,0.9472499650132704,751.1242396806488,None,,,,,lw,002,2019_Sep_18_0957,StressSession,3.1.3,60.06632598129716,
,,,,orange,blue,orange,blue,right,,,,,0,57,57,65,,,,,,,,,right,1.2520910915491186,752.6108688120589,None,,,,,lw,002,2019_Sep_18_0957,StressSession,3.1.3,60.06632598129716,
,,,,purple,magenta,purple,magenta,right,,,,,0,58,58,76,,,,,,,,,left,0.7272702060627125,754.4079279719017,None,,,,,lw,002,2019_Sep_18_0957,StressSession,3.1.3,60.06632598129716,
,,,,black,green,black,green,right,,,,,0,59,59,102,,,,,,,,,right,1.7954659878691928,755.6680438032695,None,,,,,lw,002,2019_Sep_18_0957,StressSession,3.1.3,60.06632598129716,
,,,,red,brown,brown,red,left,,,,,0,60,60,117,,,,,,,,,left,1.2175050943956194,757.9975637354123,None,,,,,lw,002,2019_Sep_18_0957,StressSession,3.1.3,60.06632598129716,
,,,,brown,blue,brown,blue,right,,,,,0,61,61,83,,,,,,,,,right,1.0815239837661466,759.741502513918,None,,,,,lw,002,2019_Sep_18_0957,StressSession,3.1.3,60.06632598129716,
,,,,brown,cyan,brown,cyan,right,,,,,0,62,62,86,,,,,,,,,right,0.9586905952505731,761.3529063655201,None,,,,,lw,002,2019_Sep_18_0957,StressSession,3.1.3,60.06632598129716,
,,,,brown,white,brown,white,right,,,,,0,63,63,80,,,,,,,,,right,1.0341495175257478,762.8368317125705,None,,,,,lw,002,2019_Sep_18_0957,StressSession,3.1.3,60.06632598129716,
,,,,brown,white,white,brown,left,,,,,0,64,64,190,,,,,,,,,left,0.8661863541879029,764.4047501612799,None,,,,,lw,002,2019_Sep_18_0957,StressSession,3.1.3,60.06632598129716,
,,,,red,blue,red,blue,right,,,,,0,65,65,0,,,,,,,,,right,0.991965020189582,765.8072257645008,None,,,,,lw,002,2019_Sep_18_0957,StressSession,3.1.3,60.06632598129716,
,,,,purple,magenta,magenta,purple,left,,,,,0,66,66,186,,,,,,,,,left,3.8925376917013637,767.3307282511119,None,,,,,lw,002,2019_Sep_18_0957,StressSession,3.1.3,60.06632598129716,
,,,,green,white,white,green,left,,,,,0,67,67,136,,,,,,,,,left,1.337233632227253,771.7578451133058,None,,,,,lw,002,2019_Sep_18_0957,StressSession,3.1.3,60.06632598129716,
,,,,white,green,white,green,right,,,,,0,68,68,93,,,,,,,,,right,1.164208499875258,773.6270211182755,None,,,,,lw,002,2019_Sep_18_0957,StressSession,3.1.3,60.06632598129716,
,,,,red,green,red,green,right,,,,,0,69,69,1,,,,,,,,,right,1.4006853114151454,775.3103092818696,None,,,,,lw,002,2019_Sep_18_0957,StressSession,3.1.3,60.06632598129716,
,,,,cyan,blue,cyan,blue,right,,,,,0,70,70,47,,,,,,,,,right,1.2914147913261331,777.2516119452912,None,,,,,lw,002,2019_Sep_18_0957,StressSession,3.1.3,60.06632598129716,
,,,,brown,black,brown,black,right,,,,,0,71,71,81,,,,,,,,,right,1.066192583515658,779.0852551805824,None,,,,,lw,002,2019_Sep_18_0957,StressSession,3.1.3,60.06632598129716,
,,,,green,yellow,green,yellow,right,,,,,0,72,72,22,,,,,,,,,right,1.004699302656718,780.6826456041426,None,,,,,lw,002,2019_Sep_18_0957,StressSession,3.1.3,60.06632598129716,
,,,,brown,green,green,brown,left,,,,,0,73,73,194,,,,,,,,,left,3.14342387761144,782.2237753823783,None,,,,,lw,002,2019_Sep_18_0957,StressSession,3.1.3,60.06632598129716,
,,,,orange,black,orange,black,right,,,,,0,74,74,63,,,,,,,,,right,1.5641287986099996,785.8994168324975,None,,,,,lw,002,2019_Sep_18_0957,StressSession,3.1.3,60.06632598129716,
,,,,green,purple,purple,green,left,,,,,0,75,75,134,,,,,,,,,left,1.5159978530155058,787.9956492837127,None,,,,,lw,002,2019_Sep_18_0957,StressSession,3.1.3,60.06632598129716,
,,,,purple,white,white,purple,left,,,,,0,76,76,181,,,,,,,,,left,0.7118436592268154,790.0476957459664,None,,,,,lw,002,2019_Sep_18_0957,StressSession,3.1.3,60.06632598129716,
,,,,black,yellow,yellow,black,left,,,,,0,77,77,215,,,,,,,,,left,1.119059525069133,791.2883880205759,None,,,,,lw,002,2019_Sep_18_0957,StressSession,3.1.3,60.06632598129716,
,,,,orange,green,orange,green,right,,,,,0,78,78,66,,,,,,,,,right,1.2898015660362034,792.941210930167,None,,,,,lw,002,2019_Sep_18_0957,StressSession,3.1.3,60.06632598129716,
,,,,blue,black,black,blue,left,,,,,0,79,79,128,,,,,,,,,left,0.9021078168680106,794.7692883035406,None,,,,,lw,002,2019_Sep_18_0957,StressSession,3.1.3,60.06632598129716,
,,,,blue,magenta,blue,magenta,right,,,,,0,80,80,11,,,,,,,,,right,1.5875775252670792,796.1959106594895,None,,,,,lw,002,2019_Sep_18_0957,StressSession,3.1.3,60.06632598129716,
,,,,white,yellow,yellow,white,left,,,,,0,81,81,206,,,,,,,,,left,1.2893215664453237,798.3177874621547,None,,,,,lw,002,2019_Sep_18_0957,StressSession,3.1.3,60.06632598129716,
,,,,purple,brown,purple,brown,right,,,,,0,82,82,70,,,,,,,,,right,1.5369441818079395,800.1502539517833,None,,,,,lw,002,2019_Sep_18_0957,StressSession,3.1.3,60.06632598129716,
,,,,yellow,orange,yellow,orange,right,,,,,0,83,83,50,,,,,,,,,right,1.6454309158989417,802.2176121876378,None,,,,,lw,002,2019_Sep_18_0957,StressSession,3.1.3,60.06632598129716,
,,,,magenta,yellow,magenta,yellow,right,,,,,0,84,84,31,,,,,,,,,right,1.1180449126018175,804.4011700043352,None,,,,,lw,002,2019_Sep_18_0957,StressSession,3.1.3,60.06632598129716,
,,,,red,green,green,red,left,,,,,0,85,85,111,,,,,,,,,left,1.3660886476041014,806.0573904576936,None,,,,,lw,002,2019_Sep_18_0957,StressSession,3.1.3,60.06632598129716,
,,,,white,black,black,white,left,,,,,0,86,86,200,,,,,,,,,right,1.1689103625294592,807.9584435554616,None,,,,,lw,002,2019_Sep_18_0957,StressSession,3.1.3,60.06632598129716,
,,,,magenta,cyan,cyan,magenta,left,,,,,0,87,87,140,,,,,,,,,left,2.0167931590031003,809.6623827947669,None,,,,,lw,002,2019_Sep_18_0957,StressSession,3.1.3,60.06632598129716,
,,,,green,purple,green,purple,right,,,,,0,88,88,24,,,,,,,,,right,1.798928384914234,812.2245493550513,None,,,,,lw,002,2019_Sep_18_0957,StressSession,3.1.3,60.06632598129716,
,,,,green,brown,green,brown,right,,,,,0,89,89,25,,,,,,,,,right,1.0799188651362783,814.5434777228993,None,,,,,lw,002,2019_Sep_18_0957,StressSession,3.1.3,60.06632598129716,
,,,,magenta,black,magenta,black,right,,,,,0,90,90,36,,,,,,,,,right,1.552659155064248,816.1582577849535,None,,,,,lw,002,2019_Sep_18_0957,StressSession,3.1.3,60.06632598129716,
,,,,white,magenta,magenta,white,left,,,,,0,91,91,204,,,,,,,,,left,1.7558060750452569,818.2436832053904,None,,,,,lw,002,2019_Sep_18_0957,StressSession,3.1.3,60.06632598129716,
,,,,yellow,blue,blue,yellow,left,,,,,0,92,92,166,,,,,,,,,left,1.2297452972838983,820.5376469012081,None,,,,,lw,002,2019_Sep_18_0957,StressSession,3.1.3,60.06632598129716,
,,,,white,magenta,white,magenta,right,,,,,0,93,93,94,,,,,,,,,right,1.0353224231912463,822.2996195843248,None,,,,,lw,002,2019_Sep_18_0957,StressSession,3.1.3,60.06632598129716,
,,,,white,orange,orange,white,left,,,,,0,94,94,207,,,,,,,,,left,1.0023935979575072,823.8605586256567,None,,,,,lw,002,2019_Sep_18_0957,StressSession,3.1.3,60.06632598129716,
,,,,cyan,black,black,cyan,left,,,,,0,95,95,155,,,,,,,,,left,0.6602072232899445,825.3948566230556,None,,,,,lw,002,2019_Sep_18_0957,StressSession,3.1.3,60.06632598129716,
,,,,black,purple,black,purple,right,,,,,0,96,96,107,,,,,,,,,right,0.9217195334658754,826.5898973099543,None,,,,,lw,002,2019_Sep_18_0957,StressSession,3.1.3,60.06632598129716,
,,,,green,brown,brown,green,left,,,,,0,97,97,135,,,,,,,,,left,0.6829988838408099,828.0444219354267,None,,,,,lw,002,2019_Sep_18_0957,StressSession,3.1.3,60.06632598129716,
,,,,cyan,green,cyan,green,right,,,,,0,98,98,48,,,,,,,,,right,0.9162010315085354,829.2507679993446,None,,,,,lw,002,2019_Sep_18_0957,StressSession,3.1.3,60.06632598129716,
,,,,red,blue,blue,red,left,,,,,0,99,99,110,,,,,,,,,left,0.751727998525439,830.7032569998873,None,,,,,lw,002,2019_Sep_18_0957,StressSession,3.1.3,60.06632598129716,
,,,,yellow,orange,orange,yellow,left,,,,,0,100,100,160,,,,,,,,,right,0.9903970215277695,831.9925619263472,None,,,,,lw,002,2019_Sep_18_0957,StressSession,3.1.3,60.06632598129716,
,,,,yellow,blue,yellow,blue,right,,,,,0,101,101,56,,,,,,,,,right,2.157219705839452,833.5136848949892,None,,,,,lw,002,2019_Sep_18_0957,StressSession,3.1.3,60.06632598129716,
,,,,magenta,orange,magenta,orange,right,,,,,0,102,102,32,,,,,,,,,right,1.2765211507021377,836.2108520867396,None,,,,,lw,002,2019_Sep_18_0957,StressSession,3.1.3,60.06632598129716,
,,,,yellow,brown,brown,yellow,left,,,,,0,103,103,162,,,,,,,,,left,1.0110626038931514,838.0203856892708,None,,,,,lw,002,2019_Sep_18_0957,StressSession,3.1.3,60.06632598129716,
,,,,cyan,white,cyan,white,right,,,,,0,104,104,44,,,,,,,,,right,1.143750703999558,839.5672438892852,None,,,,,lw,002,2019_Sep_18_0957,StressSession,3.1.3,60.06632598129716,
,,,,red,yellow,red,yellow,right,,,,,0,105,105,4,,,,,,,,,right,0.9693043461938942,841.2456057637501,None,,,,,lw,002,2019_Sep_18_0957,StressSession,3.1.3,60.06632598129716,
,,,,red,orange,orange,red,left,,,,,0,106,106,115,,,,,,,,,left,0.9243994245125577,842.7390589960032,None,,,,,lw,002,2019_Sep_18_0957,StressSession,3.1.3,60.06632598129716,
,,,,green,yellow,yellow,green,left,,,,,0,107,107,132,,,,,,,,,right,1.0742757766179238,844.1967016988146,None,,,,,lw,002,2019_Sep_18_0957,StressSession,3.1.3,60.06632598129716,
,,,,yellow,white,white,yellow,left,,,,,0,108,108,163,,,,,,,,,left,1.9365747741230734,845.8143886383887,None,,,,,lw,002,2019_Sep_18_0957,StressSession,3.1.3,60.06632598129716,
,,,,red,cyan,cyan,red,left,,,,,0,109,109,113,,,,,,,,,left,0.9133560206028051,848.2938732425614,None,,,,,lw,002,2019_Sep_18_0957,StressSession,3.1.3,60.06632598129716,
,,,,purple,red,purple,red,right,,,,,0,110,110,73,,,,,,,,,right,0.9647057367842535,849.7387377162772,None,,,,,lw,002,2019_Sep_18_0957,StressSession,3.1.3,60.06632598129716,
,,,,brown,yellow,yellow,brown,left,,,,,0,111,111,197,,,,,,,,,left,1.541517191238654,851.2414756339408,None,,,,,lw,002,2019_Sep_18_0957,StressSession,3.1.3,60.06632598129716,
,,,,orange,purple,orange,purple,right,,,,,0,112,112,60,,,,,,,,,right,2.143363717662851,853.3275978004499,None,,,,,lw,002,2019_Sep_18_0957,StressSession,3.1.3,60.06632598129716,
,,,,red,white,red,white,right,,,,,0,113,113,8,,,,,,,,,right,1.102271486061909,856.0006361594574,None,,,,,lw,002,2019_Sep_18_0957,StressSession,3.1.3,60.06632598129716,
,,,,cyan,orange,cyan,orange,right,,,,,0,114,114,41,,,,,,,,,right,1.219426372756061,857.6355685243152,None,,,,,lw,002,2019_Sep_18_0957,StressSession,3.1.3,60.06632598129716,
,,,,magenta,purple,purple,magenta,left,,,,,0,115,115,143,,,,,,,,,left,1.5374293013937859,859.3897251074345,None,,,,,lw,002,2019_Sep_18_0957,StressSession,3.1.3,60.06632598129716,
,,,,green,white,green,white,right,,,,,0,116,116,26,,,,,,,,,right,0.8133876792426236,861.4660505889701,None,,,,,lw,002,2019_Sep_18_0957,StressSession,3.1.3,60.06632598129716,
,,,,cyan,magenta,cyan,magenta,right,,,,,0,117,117,49,,,,,,,,,right,1.1585671180228019,862.816561223201,None,,,,,lw,002,2019_Sep_18_0957,StressSession,3.1.3,60.06632598129716,
,,,,magenta,cyan,magenta,cyan,right,,,,,0,118,118,30,,,,,,,,,right,0.8247105495806863,864.518700357376,None,,,,,lw,002,2019_Sep_18_0957,StressSession,3.1.3,60.06632598129716,
,,,,yellow,black,black,yellow,left,,,,,0,119,119,164,,,,,,,,,left,0.7906531919761619,865.8802966354801,None,,,,,lw,002,2019_Sep_18_0957,StressSession,3.1.3,60.06632598129716,
,,,,red,brown,red,brown,right,,,,,0,120,120,7,,,,,,,,,right,0.7754160849785876,867.2076610494628,None,,,,,lw,002,2019_Sep_18_0957,StressSession,3.1.3,60.06632598129716,
,,,,purple,white,purple,white,right,,,,,0,121,121,71,,,,,,,,,right,1.13320863299532,868.5298047745669,None,,,,,lw,002,2019_Sep_18_0957,StressSession,3.1.3,60.06632598129716,
,,,,yellow,magenta,yellow,magenta,right,,,,,0,122,122,58,,,,,,,,,right,1.163565940423723,870.1957677262785,None,,,,,lw,002,2019_Sep_18_0957,StressSession,3.1.3,60.06632598129716,
,,,,cyan,magenta,magenta,cyan,left,,,,,0,123,123,159,,,,,,,,,left,0.9153873788695819,871.8921067587357,None,,,,,lw,002,2019_Sep_18_0957,StressSession,3.1.3,60.06632598129716,
,,,,white,green,green,white,left,,,,,0,124,124,203,,,,,,,,,left,0.8404588028088256,873.3428152807978,None,,,,,lw,002,2019_Sep_18_0957,StressSession,3.1.3,60.06632598129716,
,,,,yellow,white,yellow,white,right,,,,,0,125,125,53,,,,,,,,,right,0.6973732715750884,874.7175665343434,None,,,,,lw,002,2019_Sep_18_0957,StressSession,3.1.3,60.06632598129716,
,,,,purple,yellow,yellow,purple,left,,,,,0,126,126,188,,,,,,,,,left,0.8885500684368708,875.9509491618569,None,,,,,lw,002,2019_Sep_18_0957,StressSession,3.1.3,60.06632598129716,
,,,,orange,purple,purple,orange,left,,,,,0,127,127,170,,,,,,,,,left,1.1220252825382886,877.3728683751524,None,,,,,lw,002,2019_Sep_18_0957,StressSession,3.1.3,60.06632598129716,
,,,,brown,orange,orange,brown,left,,,,,0,128,128,198,,,,,,,,,left,1.45825283562408,879.0366284487441,None,,,,,lw,002,2019_Sep_18_0957,StressSession,3.1.3,60.06632598129716,
,,,,blue,white,blue,white,right,,,,,0,129,129,17,,,,,,,,,right,1.1488660063009775,881.0346777304085,None,,,,,lw,002,2019_Sep_18_0957,StressSession,3.1.3,60.06632598129716,
,,,,purple,yellow,purple,yellow,right,,,,,0,130,130,78,,,,,,,,,right,1.1773417153349328,882.718100720554,None,,,,,lw,002,2019_Sep_18_0957,StressSession,3.1.3,60.06632598129716,
,,,,purple,black,black,purple,left,,,,,0,131,131,182,,,,,,,,,left,0.8963409951225003,884.4227008659623,None,,,,,lw,002,2019_Sep_18_0957,StressSession,3.1.3,60.06632598129716,
,,,,purple,orange,purple,orange,right,,,,,0,132,132,79,,,,,,,,,right,1.4355025617046522,885.8593660933411,None,,,,,lw,002,2019_Sep_18_0957,StressSession,3.1.3,60.06632598129716,
,,,,orange,yellow,orange,yellow,right,,,,,0,133,133,69,,,,,,,,,right,1.0868837658595112,887.8319950233645,None,,,,,lw,002,2019_Sep_18_0957,StressSession,3.1.3,60.06632598129716,
,,,,orange,cyan,orange,cyan,right,,,,,0,134,134,68,,,,,,,,,right,0.9915396338865321,889.447903617789,None,,,,,lw,002,2019_Sep_18_0957,StressSession,3.1.3,60.06632598129716,
,,,,red,orange,red,orange,right,,,,,0,135,135,5,,,,,,,,,right,1.7693843034589918,890.9740817287839,None,,,,,lw,002,2019_Sep_18_0957,StressSession,3.1.3,60.06632598129716,
,,,,orange,magenta,magenta,orange,left,,,,,0,136,136,177,,,,,,,,,left,1.5901093631068761,893.2727332072677,None,,,,,lw,002,2019_Sep_18_0957,StressSession,3.1.3,60.06632598129716,
,,,,cyan,purple,cyan,purple,right,,,,,0,137,137,42,,,,,,,,,right,0.9539388126390804,895.4051712809205,None,,,,,lw,002,2019_Sep_18_0957,StressSession,3.1.3,60.06632598129716,
,,,,green,orange,green,orange,right,,,,,0,138,138,23,,,,,,,,,right,1.5609940812851164,896.8863177503422,None,,,,,lw,002,2019_Sep_18_0957,StressSession,3.1.3,60.06632598129716,
,,,,cyan,blue,blue,cyan,left,,,,,0,139,139,157,,,,,,,,,left,0.8944483034042605,898.9846566530932,None,,,,,lw,002,2019_Sep_18_0957,StressSession,3.1.3,60.06632598129716,
,,,,black,blue,black,blue,right,,,,,0,140,140,101,,,,,,,,,right,1.6793717936025132,900.4157163385889,None,,,,,lw,002,2019_Sep_18_0957,StressSession,3.1.3,60.06632598129716,
,,,,purple,cyan,cyan,purple,left,,,,,0,141,141,187,,,,,,,,,left,1.0910834422752487,902.63610569719,None,,,,,lw,002,2019_Sep_18_0957,StressSession,3.1.3,60.06632598129716,
,,,,yellow,magenta,magenta,yellow,left,,,,,0,142,142,168,,,,,,,,,left,1.6580188518237264,904.2690707037264,None,,,,,lw,002,2019_Sep_18_0957,StressSession,3.1.3,60.06632598129716,
,,,,purple,brown,brown,purple,left,,,,,0,143,143,180,,,,,,,,,left,0.7891483399271237,906.5056588751713,None,,,,,lw,002,2019_Sep_18_0957,StressSession,3.1.3,60.06632598129716,
,,,,black,yellow,black,yellow,right,,,,,0,144,144,105,,,,,,,,,right,0.94058543736719,907.8262418549402,None,,,,,lw,002,2019_Sep_18_0957,StressSession,3.1.3,60.06632598129716,
,,,,yellow,cyan,yellow,cyan,right,,,,,0,145,145,59,,,,,,,,,right,0.8883934819045862,909.3106420815857,None,,,,,lw,002,2019_Sep_18_0957,StressSession,3.1.3,60.06632598129716,
,,,,magenta,red,red,magenta,left,,,,,0,146,146,147,,,,,,,,,left,0.7334474807917104,910.7456445903836,None,,,,,lw,002,2019_Sep_18_0957,StressSession,3.1.3,60.06632598129716,
,,,,black,red,black,red,right,,,,,0,147,147,100,,,,,,,,,left,0.8351736873182745,912.0042321030555,None,,,,,lw,002,2019_Sep_18_0957,StressSession,3.1.3,60.06632598129716,
,,,,cyan,purple,purple,cyan,left,,,,,0,148,148,152,,,,,,,,,left,1.280134160952457,913.374776853524,None,,,,,lw,002,2019_Sep_18_0957,StressSession,3.1.3,60.06632598129716,
,,,,green,cyan,cyan,green,left,,,,,0,149,149,131,,,,,,,,,left,1.6276436244106662,915.1872672535319,None,,,,,lw,002,2019_Sep_18_0957,StressSession,3.1.3,60.06632598129716,
,,,,magenta,orange,orange,magenta,left,,,,,0,150,150,142,,,,,,,,,left,0.9822924951104142,917.3606012922869,None,,,,,lw,002,2019_Sep_18_0957,StressSession,3.1.3,60.06632598129716,
,,,,white,cyan,white,cyan,right,,,,,0,151,151,95,,,,,,,,,right,1.531051066836426,918.8844476719382,None,,,,,lw,002,2019_Sep_18_0957,StressSession,3.1.3,60.06632598129716,
,,,,red,cyan,red,cyan,right,,,,,0,152,152,3,,,,,,,,,right,1.298614358515806,920.9404715174646,None,,,,,lw,002,2019_Sep_18_0957,StressSession,3.1.3,60.06632598129716,
,,,,orange,blue,blue,orange,left,,,,,0,153,153,175,,,,,,,,,left,2.038187914079572,922.7846969303919,None,,,,,lw,002,2019_Sep_18_0957,StressSession,3.1.3,60.06632598129716,
,,,,white,brown,brown,white,left,,,,,0,154,154,209,,,,,,,,,left,0.7859551693181857,925.364955421905,None,,,,,lw,002,2019_Sep_18_0957,StressSession,3.1.3,60.06632598129716,
,,,,green,orange,orange,green,left,,,,,0,155,155,133,,,,,,,,,left,1.700546815533471,926.6823051244332,None,,,,,lw,002,2019_Sep_18_0957,StressSession,3.1.3,60.06632598129716,
,,,,blue,brown,brown,blue,left,,,,,0,156,156,126,,,,,,,,,left,0.913776286911343,928.9255834235023,None,,,,,lw,002,2019_Sep_18_0957,StressSession,3.1.3,60.06632598129716,
,,,,yellow,black,yellow,black,right,,,,,0,157,157,54,,,,,,,,,right,0.9819050821079145,930.376862398411,None,,,,,lw,002,2019_Sep_18_0957,StressSession,3.1.3,60.06632598129716,
,,,,black,magenta,magenta,black,left,,,,,0,158,158,213,,,,,,,,,left,0.9275763818013729,931.8872534295438,None,,,,,lw,002,2019_Sep_18_0957,StressSession,3.1.3,60.06632598129716,
,,,,blue,yellow,blue,yellow,right,,,,,0,159,159,13,,,,,,,,,right,1.1709869474243533,933.3560594294959,None,,,,,lw,002,2019_Sep_18_0957,StressSession,3.1.3,60.06632598129716,
,,,,cyan,yellow,yellow,cyan,left,,,,,0,160,160,150,,,,,,,,,left,1.4312879519675334,935.055787472395,None,,,,,lw,002,2019_Sep_18_0957,StressSession,3.1.3,60.06632598129716,
,,,,yellow,green,yellow,green,right,,,,,0,161,161,57,,,,,,,,,right,0.8403888295347315,937.014815987357,None,,,,,lw,002,2019_Sep_18_0957,StressSession,3.1.3,60.06632598129716,
,,,,orange,brown,orange,brown,right,,,,,0,162,162,61,,,,,,,,,right,0.8890735879908789,938.3899892138761,None,,,,,lw,002,2019_Sep_18_0957,StressSession,3.1.3,60.06632598129716,
,,,,purple,black,purple,black,right,,,,,0,163,163,72,,,,,,,,,right,0.8751053865767062,939.8197211138381,None,,,,,lw,002,2019_Sep_18_0957,StressSession,3.1.3,60.06632598129716,
,,,,brown,red,red,brown,left,,,,,0,164,164,192,,,,,,,,,left,0.9972846956502508,941.2340478002793,None,,,,,lw,002,2019_Sep_18_0957,StressSession,3.1.3,60.06632598129716,
,,,,cyan,brown,cyan,brown,right,,,,,0,165,165,43,,,,,,,,,right,1.2653228669241798,942.75746495363,None,,,,,lw,002,2019_Sep_18_0957,StressSession,3.1.3,60.06632598129716,
,,,,yellow,brown,yellow,brown,right,,,,,0,166,166,52,,,,,,,,,right,1.4144866863043717,944.5603306151847,None,,,,,lw,002,2019_Sep_18_0957,StressSession,3.1.3,60.06632598129716,
,,,,orange,cyan,cyan,orange,left,,,,,0,167,167,178,,,,,,,,,left,0.8279451068201524,946.5229000337922,None,,,,,lw,002,2019_Sep_18_0957,StressSession,3.1.3,60.06632598129716,
,,,,blue,red,red,blue,left,,,,,0,168,168,129,,,,,,,,,left,0.9632840846638828,947.8918191856478,None,,,,,lw,002,2019_Sep_18_0957,StressSession,3.1.3,60.06632598129716,
,,,,white,black,white,black,right,,,,,0,169,169,90,,,,,,,,,right,0.8139478920979855,949.393236997771,None,,,,,lw,002,2019_Sep_18_0957,StressSession,3.1.3,60.06632598129716,
,,,,orange,white,orange,white,right,,,,,0,170,170,62,,,,,,,,,right,1.3817285275918039,950.7457102969938,None,,,,,lw,002,2019_Sep_18_0957,StressSession,3.1.3,60.06632598129716,
,,,,black,brown,brown,black,left,,,,,0,171,171,218,,,,,,,,,left,2.8685027255442037,952.6582953315883,None,,,,,lw,002,2019_Sep_18_0957,StressSession,3.1.3,60.06632598129716,
,,,,black,orange,orange,black,left,,,,,0,172,172,216,,,,,,,,,left,1.2201448788096059,956.0427788434954,None,,,,,lw,002,2019_Sep_18_0957,StressSession,3.1.3,60.06632598129716,
,,,,magenta,green,magenta,green,right,,,,,0,173,173,39,,,,,,,,,right,0.9739042356018217,957.8093859759906,None,,,,,lw,002,2019_Sep_18_0957,StressSession,3.1.3,60.06632598129716,
,,,,purple,orange,orange,purple,left,,,,,0,174,174,189,,,,,,,,,left,1.7248373548054587,959.3220767384946,None,,,,,lw,002,2019_Sep_18_0957,StressSession,3.1.3,60.06632598129716,
,,,,yellow,purple,purple,yellow,left,,,,,0,175,175,161,,,,,,,,,left,2.796211800566198,961.5869891524362,None,,,,,lw,002,2019_Sep_18_0957,StressSession,3.1.3,60.06632598129716,
,,,,magenta,white,white,magenta,left,,,,,0,176,176,145,,,,,,,,,left,1.2552898088192705,964.9200256682448,None,,,,,lw,002,2019_Sep_18_0957,StressSession,3.1.3,60.06632598129716,
,,,,purple,red,red,purple,left,,,,,0,177,177,183,,,,,,,,,left,0.7112778997093301,966.7115236595,None,,,,,lw,002,2019_Sep_18_0957,StressSession,3.1.3,60.06632598129716,
,,,,orange,white,white,orange,left,,,,,0,178,178,172,,,,,,,,,left,0.8182811150663838,967.964665630152,None,,,,,lw,002,2019_Sep_18_0957,StressSession,3.1.3,60.06632598129716,
,,,,green,red,green,red,right,,,,,0,179,179,28,,,,,,,,,right,1.137778655762304,969.3252302291371,None,,,,,lw,002,2019_Sep_18_0957,StressSession,3.1.3,60.06632598129716,
,,,,black,blue,blue,black,left,,,,,0,180,180,211,,,,,,,,,left,1.4088081844838598,970.9899899818752,None,,,,,lw,002,2019_Sep_18_0957,StressSession,3.1.3,60.06632598129716,
,,,,green,blue,blue,green,left,,,,,0,181,181,139,,,,,,,,,left,1.016699292416888,972.9341269895449,None,,,,,lw,002,2019_Sep_18_0957,StressSession,3.1.3,60.06632598129716,
,,,,red,magenta,red,magenta,right,,,,,0,182,182,2,,,,,,,,,right,0.7906566053061397,974.4884488631906,None,,,,,lw,002,2019_Sep_18_0957,StressSession,3.1.3,60.06632598129716,
,,,,brown,red,brown,red,right,,,,,0,183,183,82,,,,,,,,,right,0.8337985418252174,975.8210407927118,None,,,,,lw,002,2019_Sep_18_0957,StressSession,3.1.3,60.06632598129716,
,,,,red,black,black,red,left,,,,,0,184,184,119,,,,,,,,,left,0.8535049783426985,977.1776433684113,None,,,,,lw,002,2019_Sep_18_0957,StressSession,3.1.3,60.06632598129716,
,,,,orange,black,black,orange,left,,,,,0,185,185,173,,,,,,,,,left,1.71136749963307,978.5674610624333,None,,,,,lw,002,2019_Sep_18_0957,StressSession,3.1.3,60.06632598129716,
,,,,white,blue,white,blue,right,,,,,0,186,186,92,,,,,,,,,right,1.7573352470740247,980.8174333291236,None,,,,,lw,002,2019_Sep_18_0957,StressSession,3.1.3,60.06632598129716,
,,,,blue,orange,blue,orange,right,,,,,0,187,187,14,,,,,,,,,right,2.170961774112584,983.1160220876613,None,,,,,lw,002,2019_Sep_18_0957,StressSession,3.1.3,60.06632598129716,
,,,,black,white,white,black,left,,,,,0,188,188,219,,,,,,,,,left,1.3359502199891722,985.830988944223,None,,,,,lw,002,2019_Sep_18_0957,StressSession,3.1.3,60.06632598129716,
,,,,red,purple,purple,red,left,,,,,0,189,189,116,,,,,,,,,left,1.897808727203028,987.6931765818226,None,,,,,lw,002,2019_Sep_18_0957,StressSession,3.1.3,60.06632598129716,
,,,,red,black,red,black,right,,,,,0,190,190,9,,,,,,,,,right,0.8335011554122502,990.1172653932672,None,,,,,lw,002,2019_Sep_18_0957,StressSession,3.1.3,60.06632598129716,
,,,,black,green,green,black,left,,,,,0,191,191,212,,,,,,,,,left,0.987979956923482,991.483318200902,None,,,,,lw,002,2019_Sep_18_0957,StressSession,3.1.3,60.06632598129716,
,,,,blue,green,green,blue,left,,,,,0,192,192,120,,,,,,,,,left,2.711702432680795,992.9992456539771,None,,,,,lw,002,2019_Sep_18_0957,StressSession,3.1.3,60.06632598129716,
,,,,blue,brown,blue,brown,right,,,,,0,193,193,16,,,,,,,,,right,1.4565060637814895,996.2467906160723,None,,,,,lw,002,2019_Sep_18_0957,StressSession,3.1.3,60.06632598129716,
,,,,green,black,green,black,right,,,,,0,194,194,27,,,,,,,,,right,1.0829772091929044,998.2360044919428,None,,,,,lw,002,2019_Sep_18_0957,StressSession,3.1.3,60.06632598129716,
,,,,purple,blue,blue,purple,left,,,,,0,195,195,184,,,,,,,,,left,1.6901045844442706,999.8527446589915,None,,,,,lw,002,2019_Sep_18_0957,StressSession,3.1.3,60.06632598129716,
,,,,cyan,white,white,cyan,left,,,,,0,196,196,154,,,,,,,,,left,1.0498802774354772,1002.0853260071885,None,,,,,lw,002,2019_Sep_18_0957,StressSession,3.1.3,60.06632598129716,
,,,,white,orange,white,orange,right,,,,,0,197,197,97,,,,,,,,,right,0.9144794329777142,1003.6604380497597,None,,,,,lw,002,2019_Sep_18_0957,StressSession,3.1.3,60.06632598129716,
,,,,purple,blue,purple,blue,right,,,,,0,198,198,74,,,,,,,,,right,1.3791105031586994,1005.1159039010954,None,,,,,lw,002,2019_Sep_18_0957,StressSession,3.1.3,60.06632598129716,
,,,,brown,yellow,brown,yellow,right,,,,,0,199,199,87,,,,,,,,,right,1.5771668674842658,1007.0301337342862,None,,,,,lw,002,2019_Sep_18_0957,StressSession,3.1.3,60.06632598129716,
,,,,purple,green,green,purple,left,,,,,0,200,200,185,,,,,,,,,left,1.4212706805155904,1009.145738115637,None,,,,,lw,002,2019_Sep_18_0957,StressSession,3.1.3,60.06632598129716,
,,,,blue,magenta,magenta,blue,left,,,,,0,201,201,121,,,,,,,,,left,1.136783243278387,1011.1101524393366,None,,,,,lw,002,2019_Sep_18_0957,StressSession,3.1.3,60.06632598129716,
,,,,brown,green,brown,green,right,,,,,0,202,202,84,,,,,,,,,right,1.4716727708391772,1012.775088405258,None,,,,,lw,002,2019_Sep_18_0957,StressSession,3.1.3,60.06632598129716,
,,,,magenta,blue,magenta,blue,right,,,,,0,203,203,38,,,,,,,,,right,1.1176007529807066,1014.7931846031493,None,,,,,lw,002,2019_Sep_18_0957,StressSession,3.1.3,60.06632598129716,
,,,,magenta,brown,brown,magenta,left,,,,,0,204,204,144,,,,,,,,,left,0.7490016008518978,1016.4500258559779,None,,,,,lw,002,2019_Sep_18_0957,StressSession,3.1.3,60.06632598129716,
,,,,red,yellow,yellow,red,left,,,,,0,205,205,114,,,,,,,,,left,0.9183599629991477,1017.7368599578795,None,,,,,lw,002,2019_Sep_18_0957,StressSession,3.1.3,60.06632598129716,
,,,,brown,cyan,cyan,brown,left,,,,,0,206,206,196,,,,,,,,,left,1.4681655738318113,1019.1870069870874,None,,,,,lw,002,2019_Sep_18_0957,StressSession,3.1.3,60.06632598129716,
,,,,orange,red,red,orange,left,,,,,0,207,207,174,,,,,,,,,left,1.813498185815206,1021.1858170147698,None,,,,,lw,002,2019_Sep_18_0957,StressSession,3.1.3,60.06632598129716,
,,,,magenta,red,magenta,red,right,,,,,0,208,208,37,,,,,,,,,right,1.1262462922695704,1023.537068768368,None,,,,,lw,002,2019_Sep_18_0957,StressSession,3.1.3,60.06632598129716,
,,,,blue,purple,purple,blue,left,,,,,0,209,209,125,,,,,,,,,left,0.9454895398489498,1025.1976194580316,None,,,,,lw,002,2019_Sep_18_0957,StressSession,3.1.3,60.06632598129716,
,,,,red,purple,red,purple,right,,,,,0,210,210,6,,,,,,,,,right,1.249109120760295,1026.6781109946787,None,,,,,lw,002,2019_Sep_18_0957,StressSession,3.1.3,60.06632598129716,
,,,,orange,green,green,orange,left,,,,,0,211,211,176,,,,,,,,,left,0.8773342913414126,1028.4656448293167,None,,,,,lw,002,2019_Sep_18_0957,StressSession,3.1.3,60.06632598129716,
,,,,cyan,brown,brown,cyan,left,,,,,0,212,212,153,,,,,,,,,left,0.9849096662105694,1029.8784559970509,None,,,,,lw,002,2019_Sep_18_0957,StressSession,3.1.3,60.06632598129716,
,,,,yellow,red,red,yellow,left,,,,,0,213,213,165,,,,,,,,,left,0.8148118913604776,1031.3924314517922,None,,,,,lw,002,2019_Sep_18_0957,StressSession,3.1.3,60.06632598129716,
,,,,orange,brown,brown,orange,left,,,,,0,214,214,171,,,,,,,,,left,0.7343895599874486,1032.7443534981517,None,,,,,lw,002,2019_Sep_18_0957,StressSession,3.1.3,60.06632598129716,
,,,,green,cyan,green,cyan,right,,,,,0,215,215,21,,,,,,,,,right,0.784154637521624,1034.0073442070666,None,,,,,lw,002,2019_Sep_18_0957,StressSession,3.1.3,60.06632598129716,
,,,,white,red,white,red,right,,,,,0,216,216,91,,,,,,,,,right,0.8469023173101959,1035.3203470333042,None,,,,,lw,002,2019_Sep_18_0957,StressSession,3.1.3,60.06632598129716,
,,,,cyan,black,cyan,black,right,,,,,0,217,217,45,,,,,,,,,right,0.7901074857750245,1036.704684625336,None,,,,,lw,002,2019_Sep_18_0957,StressSession,3.1.3,60.06632598129716,
,,,,orange,yellow,yellow,orange,left,,,,,0,218,218,179,,,,,,,,,left,1.1407670265457455,1038.0424575637699,None,,,,,lw,002,2019_Sep_18_0957,StressSession,3.1.3,60.06632598129716,
,,,,green,blue,green,blue,right,,,,,0,219,219,29,,,,,,,,,right,0.8715742962563127,1039.719497626029,None,,,,,lw,002,2019_Sep_18_0957,StressSession,3.1.3,60.06632598129716,
,,,,,,,,,,,,,,,,,,,,7,17.366,,,,,,,,2019-09-18_10:14:32,,,,lw,002,2019_Sep_18_0957,StressSession,3.1.3,60.06632598129716,
,,,,,,,,,,,,,,,,,,,,,,6,8.422,,,,,,,,,,lw,002,2019_Sep_18_0957,StressSession,3.1.3,60.06632598129716,
,,,,,,,,,,,,,,,,,,,,1,11.452,,,,,,,,,2019-09-18_10:15:39,2019-09-18_10:20:39,,lw,002,2019_Sep_18_0957,StressSession,3.1.3,60.06632598129716,
,,,,,,,,,,,,,,,,,,,,,,,,,,,,,,,,2019-09-18_10:20:53,,,,,,,
