p_path,p_weight,p_name,p_description,p_type,p_pictures,p_pic_width,p_pic_height,p_new_width,p_new_height,p_new_size,n_path,n_weight,n_name,n_description,n_type,n_pictures,n_pic_width,n_pic_height,n_new_width,n_new_height,n_new_size,emotion_trials_p.thisRepN,emotion_trials_p.thisTrialN,emotion_trials_p.thisN,emotion_trials_p.thisIndex,emotion_evaluation_p.thisRepN,emotion_evaluation_p.thisTrialN,emotion_evaluation_p.thisN,emotion_evaluation_p.thisIndex,emotion_trials_n.thisRepN,emotion_trials_n.thisTrialN,emotion_trials_n.thisN,emotion_trials_n.thisIndex,emotion_evaluation_n.thisRepN,emotion_evaluation_n.thisTrialN,emotion_evaluation_n.thisN,emotion_evaluation_n.thisIndex,start_session_three,start_emotion_one,image_emotion_p.started,image_emotion_p.stopped,end_emotion_one,rating_emotion_p_eval_o.response,rating_emotion_p_eval_o.rt,rating_emotion_p_eval_t.response,rating_emotion_p_eval_t.rt,key_resp_cooldown_instructions.keys,key_resp_cooldown_instructions.rt,start_cooldown_measurement,end_cooldown_measurement,rating_cooldown_evaluation.response,rating_cooldown_evaluation.rt,start_emotion_two,image_emotion_n.started,image_emotion_n.stopped,end_emotion_two,rating_emotion_n_eval_o.response,rating_emotion_n_eval_o.rt,text_emotion_n_eval_t.started,text_emotion_n_eval_t.stopped,rating_emotion_n_eval_t.response,rating_emotion_n_eval_t.rt,end_session_three,participant,session,date,expName,psychopyVersion,frameRate,
Resources\Pictures\,Positive\,2070,baby suprise,.jpg,Resources\Pictures\Positive\2070.jpg,1024,768,1.9,1,"(1.9, 1)",,,,,,,,,,,,0,0,0,9,,,,,,,,,,,,,2019-09-28_11:25:28,2019-09-28_11:26:17,62.10457319999114,None,,,,,,,,,,,,,,,,,,,,,,,ar,003,2019_Sep_28_1125,EmotionSession,3.2.3,59.8272189575349,
Resources\Pictures\,Positive\,2655,boy and dog,.jpg,Resources\Pictures\Positive\2655.jpg,1024,768,1.9,1,"(1.9, 1)",,,,,,,,,,,,0,1,1,16,,,,,,,,,,,,,,,72.0612215999281,None,,,,,,,,,,,,,,,,,,,,,,,ar,003,2019_Sep_28_1125,EmotionSession,3.2.3,59.8272189575349,
Resources\Pictures\,Positive\,1463,group of cats,.jpg,Resources\Pictures\Positive\1463.jpg,1024,768,1.9,1,"(1.9, 1)",,,,,,,,,,,,0,2,2,2,,,,,,,,,,,,,,,82.04885549994651,None,,,,,,,,,,,,,,,,,,,,,,,ar,003,2019_Sep_28_1125,EmotionSession,3.2.3,59.8272189575349,
Resources\Pictures\,Positive\,4626,marriage scene,.jpg,Resources\Pictures\Positive\4626.jpg,1024,768,1.9,1,"(1.9, 1)",,,,,,,,,,,,0,3,3,17,,,,,,,,,,,,,,,92.03811710001901,None,,,,,,,,,,,,,,,,,,,,,,,ar,003,2019_Sep_28_1125,EmotionSession,3.2.3,59.8272189575349,
Resources\Pictures\,Positive\,2311,mother daughter,.jpg,Resources\Pictures\Positive\2311.jpg,1024,768,1.7999999999999998,1,"(1.8, 1)",,,,,,,,,,,,0,4,4,13,,,,,,,,,,,,,,,102.03814899991266,None,,,,,,,,,,,,,,,,,,,,,,,ar,003,2019_Sep_28_1125,EmotionSession,3.2.3,59.8272189575349,
Resources\Pictures\,Positive\,5831,father and son beach,.jpg,Resources\Pictures\Positive\5831.jpg,1024,768,1.9,1,"(1.9, 1)",,,,,,,,,,,,0,5,5,19,,,,,,,,,,,,,,,112.0631424000021,None,,,,,,,,,,,,,,,,,,,,,,,ar,003,2019_Sep_28_1125,EmotionSession,3.2.3,59.8272189575349,
Resources\Pictures\,Positive\,1942,group of turtles,.jpg,Resources\Pictures\Positive\1942.jpg,1024,768,1.9,1,"(1.9, 1)",,,,,,,,,,,,0,6,6,6,,,,,,,,,,,,,,,122.05123959993944,None,,,,,,,,,,,,,,,,,,,,,,,ar,003,2019_Sep_28_1125,EmotionSession,3.2.3,59.8272189575349,
Resources\Pictures\,Positive\,2040,baby on belly,.jpg,Resources\Pictures\Positive\2040.jpg,1024,768,1.9,1,"(1.9, 1)",,,,,,,,,,,,0,7,7,7,,,,,,,,,,,,,,,132.04644049995113,None,,,,,,,,,,,,,,,,,,,,,,,ar,003,2019_Sep_28_1125,EmotionSession,3.2.3,59.8272189575349,
Resources\Pictures\,Positive\,2304,smiling girl,.jpg,Resources\Pictures\Positive\2304.jpg,1024,768,1.7999999999999998,1,"(1.8, 1)",,,,,,,,,,,,0,8,8,12,,,,,,,,,,,,,,,142.05596269993111,None,,,,,,,,,,,,,,,,,,,,,,,ar,003,2019_Sep_28_1125,EmotionSession,3.2.3,59.8272189575349,
Resources\Pictures\,Positive\,7325,girl and watermelon,.jpg,Resources\Pictures\Positive\7325.jpg,1024,768,1.9,1,"(1.9, 1)",,,,,,,,,,,,0,9,9,22,,,,,,,,,,,,,,,152.03902919997927,None,,,,,,,,,,,,,,,,,,,,,,,ar,003,2019_Sep_28_1125,EmotionSession,3.2.3,59.8272189575349,
Resources\Pictures\,Positive\,7502,disney land,.jpg,Resources\Pictures\Positive\7502.jpg,1024,768,1.9,1,"(1.9, 1)",,,,,,,,,,,,0,10,10,23,,,,,,,,,,,,,,,162.03730399999768,None,,,,,,,,,,,,,,,,,,,,,,,ar,003,2019_Sep_28_1125,EmotionSession,3.2.3,59.8272189575349,
Resources\Pictures\,Positive\,2091,children and kitten,.jpg,Resources\Pictures\Positive\2091.jpg,1024,768,1.9,1,"(1.9, 1)",,,,,,,,,,,,0,11,11,10,,,,,,,,,,,,,,,172.06221319991164,None,,,,,,,,,,,,,,,,,,,,,,,ar,003,2019_Sep_28_1125,EmotionSession,3.2.3,59.8272189575349,
Resources\Pictures\,Positive\,2332,girl and dog,.jpg,Resources\Pictures\Positive\2332.jpg,800,600,2.1999999999999997,1,"(2.2, 1)",,,,,,,,,,,,0,12,12,14,,,,,,,,,,,,,,,182.0315759999212,None,,,,,,,,,,,,,,,,,,,,,,,ar,003,2019_Sep_28_1125,EmotionSession,3.2.3,59.8272189575349,
Resources\Pictures\,Positive\,1750,rabit,.jpg,Resources\Pictures\Positive\1750.jpg,1024,768,1.9,1,"(1.9, 1)",,,,,,,,,,,,0,13,13,4,,,,,,,,,,,,,,,192.0408797999844,None,,,,,,,,,,,,,,,,,,,,,,,ar,003,2019_Sep_28_1125,EmotionSession,3.2.3,59.8272189575349,
Resources\Pictures\,Positive\,1710,three dogs,.jpg,Resources\Pictures\Positive\1710.jpg,1024,768,1.9,1,"(1.9, 1)",,,,,,,,,,,,0,14,14,3,,,,,,,,,,,,,,,202.03788459999487,None,,,,,,,,,,,,,,,,,,,,,,,ar,003,2019_Sep_28_1125,EmotionSession,3.2.3,59.8272189575349,
Resources\Pictures\,Positive\,1340,women and parrots,.jpg,Resources\Pictures\Positive\1340.jpg,1024,768,1.9,1,"(1.9, 1)",,,,,,,,,,,,0,15,15,21,,,,,,,,,,,,,,,212.04737349995412,None,,,,,,,,,,,,,,,,,,,,,,,ar,003,2019_Sep_28_1125,EmotionSession,3.2.3,59.8272189575349,
Resources\Pictures\,Positive\,5760,flowers,.jpg,Resources\Pictures\Positive\5760.jpg,1024,768,1.9,1,"(1.9, 1)",,,,,,,,,,,,0,16,16,18,,,,,,,,,,,,,,,222.05604809999932,None,,,,,,,,,,,,,,,,,,,,,,,ar,003,2019_Sep_28_1125,EmotionSession,3.2.3,59.8272189575349,
Resources\Pictures\,Positive\,8497,family on rollercoaster,.jpg,Resources\Pictures\Positive\8497.jpg,1024,768,1.9,1,"(1.9, 1)",,,,,,,,,,,,0,17,17,26,,,,,,,,,,,,,,,232.03401259996463,None,,,,,,,,,,,,,,,,,,,,,,,ar,003,2019_Sep_28_1125,EmotionSession,3.2.3,59.8272189575349,
Resources\Pictures\,Positive\,1440,seal,.jpg,Resources\Pictures\Positive\1440.jpg,1024,768,1.9,1,"(1.9, 1)",,,,,,,,,,,,0,18,18,0,,,,,,,,,,,,,,,242.03299839992542,None,,,,,,,,,,,,,,,,,,,,,,,ar,003,2019_Sep_28_1125,EmotionSession,3.2.3,59.8272189575349,
Resources\Pictures\,Positive\,8380,team medals,.jpg,Resources\Pictures\Positive\8380.jpg,1024,768,1.9,1,"(1.9, 1)",,,,,,,,,,,,0,19,19,25,,,,,,,,,,,,,,,252.0380127999233,None,,,,,,,,,,,,,,,,,,,,,,,ar,003,2019_Sep_28_1125,EmotionSession,3.2.3,59.8272189575349,
Resources\Pictures\,Positive\,1601,man feeding giraffe,.jpg,Resources\Pictures\Positive\1601.jpg,1024,768,1.9,1,"(1.9, 1)",,,,,,,,,,,,0,20,20,27,,,,,,,,,,,,,,,262.0698627999518,None,,,,,,,,,,,,,,,,,,,,,,,ar,003,2019_Sep_28_1125,EmotionSession,3.2.3,59.8272189575349,
Resources\Pictures\,Positive\,2071,baby smiling,.jpg,Resources\Pictures\Positive\2071.jpg,1024,768,1.9,1,"(1.9, 1)",,,,,,,,,,,,0,21,21,31,,,,,,,,,,,,,,,272.0382197999861,None,,,,,,,,,,,,,,,,,,,,,,,ar,003,2019_Sep_28_1125,EmotionSession,3.2.3,59.8272189575349,
Resources\Pictures\,Positive\,2010,smiling man 2,.jpg,Resources\Pictures\Positive\2010.jpg,1024,768,1.9,1,"(1.9, 1)",,,,,,,,,,,,0,22,22,29,,,,,,,,,,,,,,,282.05946269992273,None,,,,,,,,,,,,,,,,,,,,,,,ar,003,2019_Sep_28_1125,EmotionSession,3.2.3,59.8272189575349,
Resources\Pictures\,Positive\,2005,smiling man,.jpg,Resources\Pictures\Positive\2005.jpg,1024,768,1.9,1,"(1.9, 1)",,,,,,,,,,,,0,23,23,28,,,,,,,,,,,,,,,292.02846029994544,None,,,,,,,,,,,,,,,,,,,,,,,ar,003,2019_Sep_28_1125,EmotionSession,3.2.3,59.8272189575349,
Resources\Pictures\,Positive\,2058,baby holding hand,.jpg,Resources\Pictures\Positive\2058.jpg,1024,768,1.9,1,"(1.9, 1)",,,,,,,,,,,,0,24,24,30,,,,,,,,,,,,,,,302.0372071999591,None,,,,,,,,,,,,,,,,,,,,,,,ar,003,2019_Sep_28_1125,EmotionSession,3.2.3,59.8272189575349,
Resources\Pictures\,Positive\,1811,group of apes,.jpg,Resources\Pictures\Positive\1811.jpg,1024,768,1.9,1,"(1.9, 1)",,,,,,,,,,,,0,25,25,5,,,,,,,,,,,,,,,312.03080850001425,None,,,,,,,,,,,,,,,,,,,,,,,ar,003,2019_Sep_28_1125,EmotionSession,3.2.3,59.8272189575349,
Resources\Pictures\,Positive\,2154,father and son,.jpg,Resources\Pictures\Positive\2154.jpg,1024,768,1.9,1,"(1.9, 1)",,,,,,,,,,,,0,26,26,11,,,,,,,,,,,,,,,322.0245686999988,None,,,,,,,,,,,,,,,,,,,,,,,ar,003,2019_Sep_28_1125,EmotionSession,3.2.3,59.8272189575349,
Resources\Pictures\,Positive\,8330,women and trophy,.jpg,Resources\Pictures\Positive\8330.jpg,1024,768,1.9,1,"(1.9, 1)",,,,,,,,,,,,0,27,27,24,,,,,,,,,,,,,,,332.0445926999673,None,,,,,,,,,,,,,,,,,,,,,,,ar,003,2019_Sep_28_1125,EmotionSession,3.2.3,59.8272189575349,
Resources\Pictures\,Positive\,2550,happy elderly couple,.jpg,Resources\Pictures\Positive\2550.jpg,1024,768,1.9,1,"(1.9, 1)",,,,,,,,,,,,0,28,28,15,,,,,,,,,,,,,,,342.04663479991723,None,,,,,,,,,,,,,,,,,,,,,,,ar,003,2019_Sep_28_1125,EmotionSession,3.2.3,59.8272189575349,
Resources\Pictures\,Positive\,5833,sunny beach,.jpg,Resources\Pictures\Positive\5833.jpg,1024,768,1.9,1,"(1.9, 1)",,,,,,,,,,,,0,29,29,20,,,,,,,,,,,,,,,352.0452979999827,None,,,,,,,,,,,,,,,,,,,,,,,ar,003,2019_Sep_28_1125,EmotionSession,3.2.3,59.8272189575349,
Resources\Pictures\,Positive\,2057,sitting baby,.jpg,Resources\Pictures\Positive\2057.jpg,1024,768,1.9,1,"(1.9, 1)",,,,,,,,,,,,0,30,30,8,,,,,,,,,,,,,,,362.03708669997286,None,,,,,,,,,,,,,,,,,,,,,,,ar,003,2019_Sep_28_1125,EmotionSession,3.2.3,59.8272189575349,
Resources\Pictures\,Positive\,1460,tiger cub,.jpg,Resources\Pictures\Positive\1460.jpg,1024,768,1.9,1,"(1.9, 1)",,,,,,,,,,,,0,31,31,1,,,,,,,,,,,,,,,372.04788620001636,None,,,,,,,,,,,,,,,,,,,,,,,ar,003,2019_Sep_28_1125,EmotionSession,3.2.3,59.8272189575349,
Resources\Pictures\,Positive\,1440,seal,.jpg,Resources\Pictures\Positive\1440.jpg,1024,768,1.9,1,"(1.9, 1)",,,,,,,,,,,,,,,,0,0,0,0,,,,,,,,,,,,,2019-09-28_11:31:38,6,32.125,7,15.224,,,,,,,,,,,,,,,,,,ar,003,2019_Sep_28_1125,EmotionSession,3.2.3,59.8272189575349,
Resources\Pictures\,Positive\,1460,tiger cub,.jpg,Resources\Pictures\Positive\1460.jpg,1024,768,1.9,1,"(1.9, 1)",,,,,,,,,,,,,,,,0,1,1,1,,,,,,,,,,,,,,7,8.688,5,4.173,,,,,,,,,,,,,,,,,,ar,003,2019_Sep_28_1125,EmotionSession,3.2.3,59.8272189575349,
Resources\Pictures\,Positive\,1463,group of cats,.jpg,Resources\Pictures\Positive\1463.jpg,1024,768,1.9,1,"(1.9, 1)",,,,,,,,,,,,,,,,0,2,2,2,,,,,,,,,,,,,,10,7.357,7,4.079,,,,,,,,,,,,,,,,,,ar,003,2019_Sep_28_1125,EmotionSession,3.2.3,59.8272189575349,
Resources\Pictures\,Positive\,1710,three dogs,.jpg,Resources\Pictures\Positive\1710.jpg,1024,768,1.9,1,"(1.9, 1)",,,,,,,,,,,,,,,,0,3,3,3,,,,,,,,,,,,,,10,3.259,7,2.108,,,,,,,,,,,,,,,,,,ar,003,2019_Sep_28_1125,EmotionSession,3.2.3,59.8272189575349,
Resources\Pictures\,Positive\,1750,rabit,.jpg,Resources\Pictures\Positive\1750.jpg,1024,768,1.9,1,"(1.9, 1)",,,,,,,,,,,,,,,,0,4,4,4,,,,,,,,,,,,,,10,2.369,7,2.074,,,,,,,,,,,,,,,,,,ar,003,2019_Sep_28_1125,EmotionSession,3.2.3,59.8272189575349,
Resources\Pictures\,Positive\,1811,group of apes,.jpg,Resources\Pictures\Positive\1811.jpg,1024,768,1.9,1,"(1.9, 1)",,,,,,,,,,,,,,,,0,5,5,5,,,,,,,,,,,,,,7,22.887,3,5.694,,,,,,,,,,,,,,,,,,ar,003,2019_Sep_28_1125,EmotionSession,3.2.3,59.8272189575349,
Resources\Pictures\,Positive\,1942,group of turtles,.jpg,Resources\Pictures\Positive\1942.jpg,1024,768,1.9,1,"(1.9, 1)",,,,,,,,,,,,,,,,0,6,6,6,,,,,,,,,,,,,,5,8.441,4,3.141,,,,,,,,,,,,,,,,,,ar,003,2019_Sep_28_1125,EmotionSession,3.2.3,59.8272189575349,
Resources\Pictures\,Positive\,2040,baby on belly,.jpg,Resources\Pictures\Positive\2040.jpg,1024,768,1.9,1,"(1.9, 1)",,,,,,,,,,,,,,,,0,7,7,7,,,,,,,,,,,,,,5,4.926,5,3.988,,,,,,,,,,,,,,,,,,ar,003,2019_Sep_28_1125,EmotionSession,3.2.3,59.8272189575349,
Resources\Pictures\,Positive\,2057,sitting baby,.jpg,Resources\Pictures\Positive\2057.jpg,1024,768,1.9,1,"(1.9, 1)",,,,,,,,,,,,,,,,0,8,8,8,,,,,,,,,,,,,,5,20.088,7,2.611,,,,,,,,,,,,,,,,,,ar,003,2019_Sep_28_1125,EmotionSession,3.2.3,59.8272189575349,
Resources\Pictures\,Positive\,2070,baby suprise,.jpg,Resources\Pictures\Positive\2070.jpg,1024,768,1.9,1,"(1.9, 1)",,,,,,,,,,,,,,,,0,9,9,9,,,,,,,,,,,,,,6,8.057,7,3.268,,,,,,,,,,,,,,,,,,ar,003,2019_Sep_28_1125,EmotionSession,3.2.3,59.8272189575349,
Resources\Pictures\,Positive\,2091,children and kitten,.jpg,Resources\Pictures\Positive\2091.jpg,1024,768,1.9,1,"(1.9, 1)",,,,,,,,,,,,,,,,0,10,10,10,,,,,,,,,,,,,,10,7.238,7,2.406,,,,,,,,,,,,,,,,,,ar,003,2019_Sep_28_1125,EmotionSession,3.2.3,59.8272189575349,
Resources\Pictures\,Positive\,2154,father and son,.jpg,Resources\Pictures\Positive\2154.jpg,1024,768,1.9,1,"(1.9, 1)",,,,,,,,,,,,,,,,0,11,11,11,,,,,,,,,,,,,,8,5.657,7,6.64,,,,,,,,,,,,,,,,,,ar,003,2019_Sep_28_1125,EmotionSession,3.2.3,59.8272189575349,
Resources\Pictures\,Positive\,2304,smiling girl,.jpg,Resources\Pictures\Positive\2304.jpg,1024,768,1.7999999999999998,1,"(1.8, 1)",,,,,,,,,,,,,,,,0,12,12,12,,,,,,,,,,,,,,5,6.94,6,13.56,,,,,,,,,,,,,,,,,,ar,003,2019_Sep_28_1125,EmotionSession,3.2.3,59.8272189575349,
Resources\Pictures\,Positive\,2311,mother daughter,.jpg,Resources\Pictures\Positive\2311.jpg,1024,768,1.7999999999999998,1,"(1.8, 1)",,,,,,,,,,,,,,,,0,13,13,13,,,,,,,,,,,,,,5,3.954,6,7.34,,,,,,,,,,,,,,,,,,ar,003,2019_Sep_28_1125,EmotionSession,3.2.3,59.8272189575349,
Resources\Pictures\,Positive\,2332,girl and dog,.jpg,Resources\Pictures\Positive\2332.jpg,800,600,2.1999999999999997,1,"(2.2, 1)",,,,,,,,,,,,,,,,0,14,14,14,,,,,,,,,,,,,,8,12.108,7,3.764,,,,,,,,,,,,,,,,,,ar,003,2019_Sep_28_1125,EmotionSession,3.2.3,59.8272189575349,
Resources\Pictures\,Positive\,2550,happy elderly couple,.jpg,Resources\Pictures\Positive\2550.jpg,1024,768,1.9,1,"(1.9, 1)",,,,,,,,,,,,,,,,0,15,15,15,,,,,,,,,,,,,,7,6.371,6,12.024,,,,,,,,,,,,,,,,,,ar,003,2019_Sep_28_1125,EmotionSession,3.2.3,59.8272189575349,
Resources\Pictures\,Positive\,2655,boy and dog,.jpg,Resources\Pictures\Positive\2655.jpg,1024,768,1.9,1,"(1.9, 1)",,,,,,,,,,,,,,,,0,16,16,16,,,,,,,,,,,,,,8,7.477,7,7.059,,,,,,,,,,,,,,,,,,ar,003,2019_Sep_28_1125,EmotionSession,3.2.3,59.8272189575349,
Resources\Pictures\,Positive\,4626,marriage scene,.jpg,Resources\Pictures\Positive\4626.jpg,1024,768,1.9,1,"(1.9, 1)",,,,,,,,,,,,,,,,0,17,17,17,,,,,,,,,,,,,,10,4.457,7,5.63,,,,,,,,,,,,,,,,,,ar,003,2019_Sep_28_1125,EmotionSession,3.2.3,59.8272189575349,
Resources\Pictures\,Positive\,5760,flowers,.jpg,Resources\Pictures\Positive\5760.jpg,1024,768,1.9,1,"(1.9, 1)",,,,,,,,,,,,,,,,0,18,18,18,,,,,,,,,,,,,,8,10.323,6,7.771,,,,,,,,,,,,,,,,,,ar,003,2019_Sep_28_1125,EmotionSession,3.2.3,59.8272189575349,
Resources\Pictures\,Positive\,5831,father and son beach,.jpg,Resources\Pictures\Positive\5831.jpg,1024,768,1.9,1,"(1.9, 1)",,,,,,,,,,,,,,,,0,19,19,19,,,,,,,,,,,,,,10,6.356,7,8.656,,,,,,,,,,,,,,,,,,ar,003,2019_Sep_28_1125,EmotionSession,3.2.3,59.8272189575349,
Resources\Pictures\,Positive\,5833,sunny beach,.jpg,Resources\Pictures\Positive\5833.jpg,1024,768,1.9,1,"(1.9, 1)",,,,,,,,,,,,,,,,0,20,20,20,,,,,,,,,,,,,,7,7.988,5,3.092,,,,,,,,,,,,,,,,,,ar,003,2019_Sep_28_1125,EmotionSession,3.2.3,59.8272189575349,
Resources\Pictures\,Positive\,1340,women and parrots,.jpg,Resources\Pictures\Positive\1340.jpg,1024,768,1.9,1,"(1.9, 1)",,,,,,,,,,,,,,,,0,21,21,21,,,,,,,,,,,,,,10,6.406,7,10.721,,,,,,,,,,,,,,,,,,ar,003,2019_Sep_28_1125,EmotionSession,3.2.3,59.8272189575349,
Resources\Pictures\,Positive\,7325,girl and watermelon,.jpg,Resources\Pictures\Positive\7325.jpg,1024,768,1.9,1,"(1.9, 1)",,,,,,,,,,,,,,,,0,22,22,22,,,,,,,,,,,,,,5,14.637,4,7.025,,,,,,,,,,,,,,,,,,ar,003,2019_Sep_28_1125,EmotionSession,3.2.3,59.8272189575349,
Resources\Pictures\,Positive\,7502,disney land,.jpg,Resources\Pictures\Positive\7502.jpg,1024,768,1.9,1,"(1.9, 1)",,,,,,,,,,,,,,,,0,23,23,23,,,,,,,,,,,,,,7,11.374,5,3.658,,,,,,,,,,,,,,,,,,ar,003,2019_Sep_28_1125,EmotionSession,3.2.3,59.8272189575349,
Resources\Pictures\,Positive\,8330,women and trophy,.jpg,Resources\Pictures\Positive\8330.jpg,1024,768,1.9,1,"(1.9, 1)",,,,,,,,,,,,,,,,0,24,24,24,,,,,,,,,,,,,,2,19.787,4,2.211,,,,,,,,,,,,,,,,,,ar,003,2019_Sep_28_1125,EmotionSession,3.2.3,59.8272189575349,
Resources\Pictures\,Positive\,8380,team medals,.jpg,Resources\Pictures\Positive\8380.jpg,1024,768,1.9,1,"(1.9, 1)",,,,,,,,,,,,,,,,0,25,25,25,,,,,,,,,,,,,,4,13.103,4,12.787,,,,,,,,,,,,,,,,,,ar,003,2019_Sep_28_1125,EmotionSession,3.2.3,59.8272189575349,
Resources\Pictures\,Positive\,8497,family on rollercoaster,.jpg,Resources\Pictures\Positive\8497.jpg,1024,768,1.9,1,"(1.9, 1)",,,,,,,,,,,,,,,,0,26,26,26,,,,,,,,,,,,,,5,6.692,4,3.593,,,,,,,,,,,,,,,,,,ar,003,2019_Sep_28_1125,EmotionSession,3.2.3,59.8272189575349,
Resources\Pictures\,Positive\,1601,man feeding giraffe,.jpg,Resources\Pictures\Positive\1601.jpg,1024,768,1.9,1,"(1.9, 1)",,,,,,,,,,,,,,,,0,27,27,27,,,,,,,,,,,,,,5,5.041,5,5.492,,,,,,,,,,,,,,,,,,ar,003,2019_Sep_28_1125,EmotionSession,3.2.3,59.8272189575349,
Resources\Pictures\,Positive\,2005,smiling man,.jpg,Resources\Pictures\Positive\2005.jpg,1024,768,1.9,1,"(1.9, 1)",,,,,,,,,,,,,,,,0,28,28,28,,,,,,,,,,,,,,4,9.474,4,12.29,,,,,,,,,,,,,,,,,,ar,003,2019_Sep_28_1125,EmotionSession,3.2.3,59.8272189575349,
Resources\Pictures\,Positive\,2010,smiling man 2,.jpg,Resources\Pictures\Positive\2010.jpg,1024,768,1.9,1,"(1.9, 1)",,,,,,,,,,,,,,,,0,29,29,29,,,,,,,,,,,,,,8,11.022,1,3.05,,,,,,,,,,,,,,,,,,ar,003,2019_Sep_28_1125,EmotionSession,3.2.3,59.8272189575349,
Resources\Pictures\,Positive\,2058,baby holding hand,.jpg,Resources\Pictures\Positive\2058.jpg,1024,768,1.9,1,"(1.9, 1)",,,,,,,,,,,,,,,,0,30,30,30,,,,,,,,,,,,,,4,19.285,4,4.509,,,,,,,,,,,,,,,,,,ar,003,2019_Sep_28_1125,EmotionSession,3.2.3,59.8272189575349,
Resources\Pictures\,Positive\,2071,baby smiling,.jpg,Resources\Pictures\Positive\2071.jpg,1024,768,1.9,1,"(1.9, 1)",,,,,,,,,,,,,,,,0,31,31,31,,,,,,,,,,,,,,5,4.975,5,3.642,,,,,,,,,,,,,,,,,,ar,003,2019_Sep_28_1125,EmotionSession,3.2.3,59.8272189575349,
,,,,,,,,,,,,,,,,,,,,,,,,,,,,,,,,,,,,,,,,,,,,,,,space,35.90287170000374,,,,,,,,,,,,,,,,ar,003,2019_Sep_28_1125,EmotionSession,3.2.3,59.8272189575349,
,,,,,,,,,,,,,,,,,,,,,,,,,,,,,,,,,,,,,,,,,,,,,,,,,2019-09-28_11:41:39,2019-09-28_11:46:39,5,26.126,,,,,,,,,,,,ar,003,2019_Sep_28_1125,EmotionSession,3.2.3,59.8272189575349,
,,,,,,,,,,,Resources\Pictures\,Negative\,7380.0,cockroaches food,.jpg,Resources\Pictures\Negative\7380.jpg,1024,768,1.9,1,"(1.9, 1)",,,,,,,,,0,0,0,16,,,,,,,,,,,,,,,,,,,,2019-09-28_11:47:30,1334.6958057999145,None,,,,,,,,,ar,003,2019_Sep_28_1125,EmotionSession,3.2.3,59.8272189575349,
,,,,,,,,,,,Resources\Pictures\,Negative\,5972.0,tornado 2,.jpg,Resources\Pictures\Negative\5972.jpg,1024,768,1.9,1,"(1.9, 1)",,,,,,,,,0,1,1,15,,,,,,,,,,,,,,,,,,,,,1344.6810864999425,None,,,,,,,,,ar,003,2019_Sep_28_1125,EmotionSession,3.2.3,59.8272189575349,
,,,,,,,,,,,Resources\Pictures\,Negative\,2694.0,prison scene,.jpg,Resources\Pictures\Negative\2694.jpg,1024,768,1.9,1,"(1.9, 1)",,,,,,,,,0,2,2,13,,,,,,,,,,,,,,,,,,,,,1354.689952399931,None,,,,,,,,,ar,003,2019_Sep_28_1125,EmotionSession,3.2.3,59.8272189575349,
,,,,,,,,,,,Resources\Pictures\,Negative\,2692.0,bomb,.jpg,Resources\Pictures\Negative\2692.jpg,1024,768,1.9,1,"(1.9, 1)",,,,,,,,,0,3,3,27,,,,,,,,,,,,,,,,,,,,,1364.6667315999512,None,,,,,,,,,ar,003,2019_Sep_28_1125,EmotionSession,3.2.3,59.8272189575349,
,,,,,,,,,,,Resources\Pictures\,Negative\,2688.0,poacher,.jpg,Resources\Pictures\Negative\2688.jpg,1024,768,1.9,1,"(1.9, 1)",,,,,,,,,0,4,4,11,,,,,,,,,,,,,,,,,,,,,1374.6727538999403,None,,,,,,,,,ar,003,2019_Sep_28_1125,EmotionSession,3.2.3,59.8272189575349,
,,,,,,,,,,,Resources\Pictures\,Negative\,1201.0,spider on shoulder,.jpg,Resources\Pictures\Negative\1201.jpg,1024,768,1.9,1,"(1.9, 1)",,,,,,,,,0,5,5,22,,,,,,,,,,,,,,,,,,,,,1384.6610961999977,None,,,,,,,,,ar,003,2019_Sep_28_1125,EmotionSession,3.2.3,59.8272189575349,
,,,,,,,,,,,Resources\Pictures\,Negative\,9560.0,bird in oil,.jpg,Resources\Pictures\Negative\9560.jpg,1024,768,1.9,1,"(1.9, 1)",,,,,,,,,0,6,6,29,,,,,,,,,,,,,,,,,,,,,1394.7035107999109,None,,,,,,,,,ar,003,2019_Sep_28_1125,EmotionSession,3.2.3,59.8272189575349,
,,,,,,,,,,,Resources\Pictures\,Negative\,2410.0,math problem,.jpg,Resources\Pictures\Negative\2410.jpg,1024,768,1.9,1,"(1.9, 1)",,,,,,,,,0,7,7,9,,,,,,,,,,,,,,,,,,,,,1404.6722779999254,None,,,,,,,,,ar,003,2019_Sep_28_1125,EmotionSession,3.2.3,59.8272189575349,
,,,,,,,,,,,Resources\Pictures\,Negative\,2691.0,riot scene 2,.jpg,Resources\Pictures\Negative\2691.jpg,1024,768,1.9,1,"(1.9, 1)",,,,,,,,,0,8,8,12,,,,,,,,,,,,,,,,,,,,,1414.6733902000124,None,,,,,,,,,ar,003,2019_Sep_28_1125,EmotionSession,3.2.3,59.8272189575349,
,,,,,,,,,,,Resources\Pictures\,Negative\,1240.0,spider,.jpg,Resources\Pictures\Negative\1240.jpg,1024,768,1.9,1,"(1.9, 1)",,,,,,,,,0,9,9,1,,,,,,,,,,,,,,,,,,,,,1424.6874409000156,None,,,,,,,,,ar,003,2019_Sep_28_1125,EmotionSession,3.2.3,59.8272189575349,
,,,,,,,,,,,Resources\Pictures\,Negative\,9592.0,syringe,.jpg,Resources\Pictures\Negative\9592.jpg,1024,768,1.9,1,"(1.9, 1)",,,,,,,,,0,10,10,21,,,,,,,,,,,,,,,,,,,,,1434.6628928999417,None,,,,,,,,,ar,003,2019_Sep_28_1125,EmotionSession,3.2.3,59.8272189575349,
,,,,,,,,,,,Resources\Pictures\,Negative\,2206.0,fingerprints,.jpg,Resources\Pictures\Negative\2206.jpg,1024,768,1.9,1,"(1.9, 1)",,,,,,,,,0,11,11,4,,,,,,,,,,,,,,,,,,,,,1444.6618414999684,None,,,,,,,,,ar,003,2019_Sep_28_1125,EmotionSession,3.2.3,59.8272189575349,
,,,,,,,,,,,Resources\Pictures\,Negative\,5971.0,tornado 1,.jpg,Resources\Pictures\Negative\5971.jpg,1024,768,1.9,1,"(1.9, 1)",,,,,,,,,0,12,12,14,,,,,,,,,,,,,,,,,,,,,1454.6595970999915,None,,,,,,,,,ar,003,2019_Sep_28_1125,EmotionSession,3.2.3,59.8272189575349,
,,,,,,,,,,,Resources\Pictures\,Negative\,9584.0,dentist,.jpg,Resources\Pictures\Negative\9584.jpg,1024,768,1.9,1,"(1.9, 1)",,,,,,,,,0,13,13,20,,,,,,,,,,,,,,,,,,,,,1464.6984852999449,None,,,,,,,,,ar,003,2019_Sep_28_1125,EmotionSession,3.2.3,59.8272189575349,
,,,,,,,,,,,Resources\Pictures\,Negative\,1302.0, dog threat 2,.jpg,Resources\Pictures\Negative\1302.jpg,1024,768,1.9,1,"(1.9, 1)",,,,,,,,,0,14,14,3,,,,,,,,,,,,,,,,,,,,,1474.673715599929,None,,,,,,,,,ar,003,2019_Sep_28_1125,EmotionSession,3.2.3,59.8272189575349,
,,,,,,,,,,,Resources\Pictures\,Negative\,2276.0,child crying,.jpg,Resources\Pictures\Negative\2276.jpg,1024,768,1.9,1,"(1.9, 1)",,,,,,,,,0,15,15,5,,,,,,,,,,,,,,,,,,,,,1484.6679065999342,None,,,,,,,,,ar,003,2019_Sep_28_1125,EmotionSession,3.2.3,59.8272189575349,
,,,,,,,,,,,Resources\Pictures\,Negative\,1300.0,dog threat 1,.jpg,Resources\Pictures\Negative\1300.jpg,1024,768,1.9,1,"(1.9, 1)",,,,,,,,,0,16,16,2,,,,,,,,,,,,,,,,,,,,,1494.668650800013,None,,,,,,,,,ar,003,2019_Sep_28_1125,EmotionSession,3.2.3,59.8272189575349,
,,,,,,,,,,,Resources\Pictures\,Negative\,9341.0,child in garbage river,.jpg,Resources\Pictures\Negative\9341.jpg,1024,768,1.9,1,"(1.9, 1)",,,,,,,,,0,17,17,19,,,,,,,,,,,,,,,,,,,,,1504.6889328999678,None,,,,,,,,,ar,003,2019_Sep_28_1125,EmotionSession,3.2.3,59.8272189575349,
,,,,,,,,,,,Resources\Pictures\,Negative\,2683.0,riot scene 1,.jpg,Resources\Pictures\Negative\2683.jpg,1024,768,1.9,1,"(1.9, 1)",,,,,,,,,0,18,18,10,,,,,,,,,,,,,,,,,,,,,1514.6789597999305,None,,,,,,,,,ar,003,2019_Sep_28_1125,EmotionSession,3.2.3,59.8272189575349,
,,,,,,,,,,,Resources\Pictures\,Negative\,2399.0,headache,.jpg,Resources\Pictures\Negative\2399.jpg,1024,768,1.9,1,"(1.9, 1)",,,,,,,,,0,19,19,8,,,,,,,,,,,,,,,,,,,,,1524.6511417999864,None,,,,,,,,,ar,003,2019_Sep_28_1125,EmotionSession,3.2.3,59.8272189575349,
,,,,,,,,,,,Resources\Pictures\,Negative\,2110.0, angry man 2,.jpg,Resources\Pictures\Negative\2110.jpg,1024,768,1.9,1,"(1.9, 1)",,,,,,,,,0,20,20,26,,,,,,,,,,,,,,,,,,,,,1534.664013099973,None,,,,,,,,,ar,003,2019_Sep_28_1125,EmotionSession,3.2.3,59.8272189575349,
,,,,,,,,,,,Resources\Pictures\,Negative\,1726.0,roaring tiger,.jpg,Resources\Pictures\Negative\1726.jpg,1024,768,1.9,1,"(1.9, 1)",,,,,,,,,0,21,21,23,,,,,,,,,,,,,,,,,,,,,1544.6921050000237,None,,,,,,,,,ar,003,2019_Sep_28_1125,EmotionSession,3.2.3,59.8272189575349,
,,,,,,,,,,,Resources\Pictures\,Negative\,2375.1,famine,.jpg,Resources\Pictures\Negative\2375.1.jpg,1024,768,1.9,1,"(1.9, 1)",,,,,,,,,0,22,22,7,,,,,,,,,,,,,,,,,,,,,1554.6693773999577,None,,,,,,,,,ar,003,2019_Sep_28_1125,EmotionSession,3.2.3,59.8272189575349,
,,,,,,,,,,,Resources\Pictures\,Negative\,1022.0,snake close up,.jpg,Resources\Pictures\Negative\1022.jpg,1024,768,1.9,1,"(1.9, 1)",,,,,,,,,0,23,23,0,,,,,,,,,,,,,,,,,,,,,1564.6641174999531,None,,,,,,,,,ar,003,2019_Sep_28_1125,EmotionSession,3.2.3,59.8272189575349,
,,,,,,,,,,,Resources\Pictures\,Negative\,2100.0,angry man,.jpg,Resources\Pictures\Negative\2100.jpg,1024,768,1.9,1,"(1.9, 1)",,,,,,,,,0,24,24,25,,,,,,,,,,,,,,,,,,,,,1574.6538202000083,None,,,,,,,,,ar,003,2019_Sep_28_1125,EmotionSession,3.2.3,59.8272189575349,
,,,,,,,,,,,Resources\Pictures\,Negative\,1931.0,shark,.jpg,Resources\Pictures\Negative\1931.jpg,1024,768,1.9,1,"(1.9, 1)",,,,,,,,,0,25,25,24,,,,,,,,,,,,,,,,,,,,,1584.6882091999287,None,,,,,,,,,ar,003,2019_Sep_28_1125,EmotionSession,3.2.3,59.8272189575349,
,,,,,,,,,,,Resources\Pictures\,Negative\,8179.0,bungee jump,.jpg,Resources\Pictures\Negative\8179.jpg,1024,768,1.9,1,"(1.9, 1)",,,,,,,,,0,26,26,17,,,,,,,,,,,,,,,,,,,,,1594.665783799952,None,,,,,,,,,ar,003,2019_Sep_28_1125,EmotionSession,3.2.3,59.8272189575349,
,,,,,,,,,,,Resources\Pictures\,Negative\,6000.0,prison  ,.jpg,Resources\Pictures\Negative\6000.jpg,1024,768,1.9,1,"(1.9, 1)",,,,,,,,,0,27,27,28,,,,,,,,,,,,,,,,,,,,,1604.685916599934,None,,,,,,,,,ar,003,2019_Sep_28_1125,EmotionSession,3.2.3,59.8272189575349,
,,,,,,,,,,,Resources\Pictures\,Negative\,2278.0,poor children,.jpg,Resources\Pictures\Negative\2278.jpg,1024,768,1.9,1,"(1.9, 1)",,,,,,,,,0,28,28,6,,,,,,,,,,,,,,,,,,,,,1614.6848715000087,None,,,,,,,,,ar,003,2019_Sep_28_1125,EmotionSession,3.2.3,59.8272189575349,
,,,,,,,,,,,Resources\Pictures\,Negative\,9280.0,pollution,.jpg,Resources\Pictures\Negative\9280.jpg,1024,768,1.9,1,"(1.9, 1)",,,,,,,,,0,29,29,18,,,,,,,,,,,,,,,,,,,,,1624.673091799952,None,,,,,,,,,ar,003,2019_Sep_28_1125,EmotionSession,3.2.3,59.8272189575349,
,,,,,,,,,,,Resources\Pictures\,Negative\,1022.0,snake close up,.jpg,Resources\Pictures\Negative\1022.jpg,1024,768,1.9,1,"(1.9, 1)",,,,,,,,,,,,,0,0,0,0,,,,,,,,,,,,,,,,,,,2019-09-28_11:52:30,9,40.223,1675.9535274999216,None,1,9.081,,ar,003,2019_Sep_28_1125,EmotionSession,3.2.3,59.8272189575349,
,,,,,,,,,,,Resources\Pictures\,Negative\,1240.0,spider,.jpg,Resources\Pictures\Negative\1240.jpg,1024,768,1.9,1,"(1.9, 1)",,,,,,,,,,,,,0,1,1,1,,,,,,,,,,,,,,,,,,,,10,2.774,1688.9089469999308,None,1,1.951,,ar,003,2019_Sep_28_1125,EmotionSession,3.2.3,59.8272189575349,
,,,,,,,,,,,Resources\Pictures\,Negative\,1300.0,dog threat 1,.jpg,Resources\Pictures\Negative\1300.jpg,1024,768,1.9,1,"(1.9, 1)",,,,,,,,,,,,,0,2,2,2,,,,,,,,,,,,,,,,,,,,5,20.69,1712.6641859000083,None,4,8.507,,ar,003,2019_Sep_28_1125,EmotionSession,3.2.3,59.8272189575349,
,,,,,,,,,,,Resources\Pictures\,Negative\,1302.0, dog threat 2,.jpg,Resources\Pictures\Negative\1302.jpg,1024,768,1.9,1,"(1.9, 1)",,,,,,,,,,,,,0,3,3,3,,,,,,,,,,,,,,,,,,,,8,8.456,1730.73945559992,None,6,6.345,,ar,003,2019_Sep_28_1125,EmotionSession,3.2.3,59.8272189575349,
,,,,,,,,,,,Resources\Pictures\,Negative\,2206.0,fingerprints,.jpg,Resources\Pictures\Negative\2206.jpg,1024,768,1.9,1,"(1.9, 1)",,,,,,,,,,,,,0,4,4,4,,,,,,,,,,,,,,,,,,,,2,8.007,1746.2067033000058,None,4,5.541,,ar,003,2019_Sep_28_1125,EmotionSession,3.2.3,59.8272189575349,
,,,,,,,,,,,Resources\Pictures\,Negative\,2276.0,child crying,.jpg,Resources\Pictures\Negative\2276.jpg,1024,768,1.9,1,"(1.9, 1)",,,,,,,,,,,,,0,5,5,5,,,,,,,,,,,,,,,,,,,,7,5.11,1757.9671784999082,None,1,6.277,,ar,003,2019_Sep_28_1125,EmotionSession,3.2.3,59.8272189575349,
,,,,,,,,,,,Resources\Pictures\,Negative\,2278.0,poor children,.jpg,Resources\Pictures\Negative\2278.jpg,1024,768,1.9,1,"(1.9, 1)",,,,,,,,,,,,,0,6,6,6,,,,,,,,,,,,,,,,,,,,6,3.889,1769.2555985000217,None,1,6.753,,ar,003,2019_Sep_28_1125,EmotionSession,3.2.3,59.8272189575349,
,,,,,,,,,,,Resources\Pictures\,Negative\,2375.1,famine,.jpg,Resources\Pictures\Negative\2375.1.jpg,1024,768,1.9,1,"(1.9, 1)",,,,,,,,,,,,,0,7,7,7,,,,,,,,,,,,,,,,,,,,10,4.442,1781.5571479999926,None,1,3.365,,ar,003,2019_Sep_28_1125,EmotionSession,3.2.3,59.8272189575349,
,,,,,,,,,,,Resources\Pictures\,Negative\,2399.0,headache,.jpg,Resources\Pictures\Negative\2399.jpg,1024,768,1.9,1,"(1.9, 1)",,,,,,,,,,,,,0,8,8,8,,,,,,,,,,,,,,,,,,,,2,5.462,1791.4896604999667,None,4,1.997,,ar,003,2019_Sep_28_1125,EmotionSession,3.2.3,59.8272189575349,
,,,,,,,,,,,Resources\Pictures\,Negative\,2410.0,math problem,.jpg,Resources\Pictures\Negative\2410.jpg,1024,768,1.9,1,"(1.9, 1)",,,,,,,,,,,,,0,9,9,9,,,,,,,,,,,,,,,,,,,,6,7.491,1802.090167599963,None,5,6.943,,ar,003,2019_Sep_28_1125,EmotionSession,3.2.3,59.8272189575349,
,,,,,,,,,,,Resources\Pictures\,Negative\,2683.0,riot scene 1,.jpg,Resources\Pictures\Negative\2683.jpg,1024,768,1.9,1,"(1.9, 1)",,,,,,,,,,,,,0,10,10,10,,,,,,,,,,,,,,,,,,,,6,9.926,1820.0758821999189,None,1,5.188,,ar,003,2019_Sep_28_1125,EmotionSession,3.2.3,59.8272189575349,
,,,,,,,,,,,Resources\Pictures\,Negative\,2688.0,poacher,.jpg,Resources\Pictures\Negative\2688.jpg,1024,768,1.9,1,"(1.9, 1)",,,,,,,,,,,,,0,11,11,11,,,,,,,,,,,,,,,,,,,,10,5.57,1831.9516098999884,None,1,2.975,,ar,003,2019_Sep_28_1125,EmotionSession,3.2.3,59.8272189575349,
,,,,,,,,,,,Resources\Pictures\,Negative\,2691.0,riot scene 2,.jpg,Resources\Pictures\Negative\2691.jpg,1024,768,1.9,1,"(1.9, 1)",,,,,,,,,,,,,0,12,12,12,,,,,,,,,,,,,,,,,,,,6,7.51,1843.5492748999968,None,3,4.775,,ar,003,2019_Sep_28_1125,EmotionSession,3.2.3,59.8272189575349,
,,,,,,,,,,,Resources\Pictures\,Negative\,2694.0,prison scene,.jpg,Resources\Pictures\Negative\2694.jpg,1024,768,1.9,1,"(1.9, 1)",,,,,,,,,,,,,0,13,13,13,,,,,,,,,,,,,,,,,,,,2,5.241,1854.6828816999914,None,4,4.556,,ar,003,2019_Sep_28_1125,EmotionSession,3.2.3,59.8272189575349,
,,,,,,,,,,,Resources\Pictures\,Negative\,5971.0,tornado 1,.jpg,Resources\Pictures\Negative\5971.jpg,1024,768,1.9,1,"(1.9, 1)",,,,,,,,,,,,,0,14,14,14,,,,,,,,,,,,,,,,,,,,4,8.508,1868.8553940999554,None,3,9.479,,ar,003,2019_Sep_28_1125,EmotionSession,3.2.3,59.8272189575349,
,,,,,,,,,,,Resources\Pictures\,Negative\,5972.0,tornado 2,.jpg,Resources\Pictures\Negative\5972.jpg,1024,768,1.9,1,"(1.9, 1)",,,,,,,,,,,,,0,15,15,15,,,,,,,,,,,,,,,,,,,,7,7.891,1887.3356094999472,None,2,5.362,,ar,003,2019_Sep_28_1125,EmotionSession,3.2.3,59.8272189575349,
,,,,,,,,,,,Resources\Pictures\,Negative\,7380.0,cockroaches food,.jpg,Resources\Pictures\Negative\7380.jpg,1024,768,1.9,1,"(1.9, 1)",,,,,,,,,,,,,0,16,16,16,,,,,,,,,,,,,,,,,,,,7,6.458,1900.2694233999355,None,2,6.673,,ar,003,2019_Sep_28_1125,EmotionSession,3.2.3,59.8272189575349,
,,,,,,,,,,,Resources\Pictures\,Negative\,8179.0,bungee jump,.jpg,Resources\Pictures\Negative\8179.jpg,1024,768,1.9,1,"(1.9, 1)",,,,,,,,,,,,,0,17,17,17,,,,,,,,,,,,,,,,,,,,7,5.354,1913.4193763999501,None,5,5.871,,ar,003,2019_Sep_28_1125,EmotionSession,3.2.3,59.8272189575349,
,,,,,,,,,,,Resources\Pictures\,Negative\,9280.0,pollution,.jpg,Resources\Pictures\Negative\9280.jpg,1024,768,1.9,1,"(1.9, 1)",,,,,,,,,,,,,0,18,18,18,,,,,,,,,,,,,,,,,,,,6,28.44,1948.8444846000057,None,2,5.904,,ar,003,2019_Sep_28_1125,EmotionSession,3.2.3,59.8272189575349,
,,,,,,,,,,,Resources\Pictures\,Negative\,9341.0,child in garbage river,.jpg,Resources\Pictures\Negative\9341.jpg,1024,768,1.9,1,"(1.9, 1)",,,,,,,,,,,,,0,19,19,19,,,,,,,,,,,,,,,,,,,,8,5.155,1961.0235487999162,None,1,3.756,,ar,003,2019_Sep_28_1125,EmotionSession,3.2.3,59.8272189575349,
,,,,,,,,,,,Resources\Pictures\,Negative\,9584.0,dentist,.jpg,Resources\Pictures\Negative\9584.jpg,1024,768,1.9,1,"(1.9, 1)",,,,,,,,,,,,,0,20,20,20,,,,,,,,,,,,,,,,,,,,8,4.271,1970.1638722999487,None,2,5.814,,ar,003,2019_Sep_28_1125,EmotionSession,3.2.3,59.8272189575349,
,,,,,,,,,,,Resources\Pictures\,Negative\,9592.0,syringe,.jpg,Resources\Pictures\Negative\9592.jpg,1024,768,1.9,1,"(1.9, 1)",,,,,,,,,,,,,0,21,21,21,,,,,,,,,,,,,,,,,,,,10,4.111,1981.197274099919,None,3,10.76,,ar,003,2019_Sep_28_1125,EmotionSession,3.2.3,59.8272189575349,
,,,,,,,,,,,Resources\Pictures\,Negative\,1201.0,spider on shoulder,.jpg,Resources\Pictures\Negative\1201.jpg,1024,768,1.9,1,"(1.9, 1)",,,,,,,,,,,,,0,22,22,22,,,,,,,,,,,,,,,,,,,,10,2.091,1995.161211199942,None,1,0.861,,ar,003,2019_Sep_28_1125,EmotionSession,3.2.3,59.8272189575349,
,,,,,,,,,,,Resources\Pictures\,Negative\,1726.0,roaring tiger,.jpg,Resources\Pictures\Negative\1726.jpg,1024,768,1.9,1,"(1.9, 1)",,,,,,,,,,,,,0,23,23,23,,,,,,,,,,,,,,,,,,,,5,11.352,2008.4857972000027,None,5,8.249,,ar,003,2019_Sep_28_1125,EmotionSession,3.2.3,59.8272189575349,
,,,,,,,,,,,Resources\Pictures\,Negative\,1931.0,shark,.jpg,Resources\Pictures\Negative\1931.jpg,1024,768,1.9,1,"(1.9, 1)",,,,,,,,,,,,,0,24,24,24,,,,,,,,,,,,,,,,,,,,10,6.639,2024.4797452000203,None,1,2.338,,ar,003,2019_Sep_28_1125,EmotionSession,3.2.3,59.8272189575349,
,,,,,,,,,,,Resources\Pictures\,Negative\,2100.0,angry man,.jpg,Resources\Pictures\Negative\2100.jpg,1024,768,1.9,1,"(1.9, 1)",,,,,,,,,,,,,0,25,25,25,,,,,,,,,,,,,,,,,,,,9,4.493,2032.416708500008,None,2,6.211,,ar,003,2019_Sep_28_1125,EmotionSession,3.2.3,59.8272189575349,
,,,,,,,,,,,Resources\Pictures\,Negative\,2110.0, angry man 2,.jpg,Resources\Pictures\Negative\2110.jpg,1024,768,1.9,1,"(1.9, 1)",,,,,,,,,,,,,0,26,26,26,,,,,,,,,,,,,,,,,,,,4,6.762,2046.4952802999178,None,4,3.464,,ar,003,2019_Sep_28_1125,EmotionSession,3.2.3,59.8272189575349,
,,,,,,,,,,,Resources\Pictures\,Negative\,2692.0,bomb,.jpg,Resources\Pictures\Negative\2692.jpg,1024,768,1.9,1,"(1.9, 1)",,,,,,,,,,,,,0,27,27,27,,,,,,,,,,,,,,,,,,,,3,3.905,2054.9844248999143,None,4,5.823,,ar,003,2019_Sep_28_1125,EmotionSession,3.2.3,59.8272189575349,
,,,,,,,,,,,Resources\Pictures\,Negative\,6000.0,prison  ,.jpg,Resources\Pictures\Negative\6000.jpg,1024,768,1.9,1,"(1.9, 1)",,,,,,,,,,,,,0,28,28,28,,,,,,,,,,,,,,,,,,,,6,8.607,2070.5319199999794,None,2,12.186,,ar,003,2019_Sep_28_1125,EmotionSession,3.2.3,59.8272189575349,
,,,,,,,,,,,Resources\Pictures\,Negative\,9560.0,bird in oil,.jpg,Resources\Pictures\Negative\9560.jpg,1024,768,1.9,1,"(1.9, 1)",,,,,,,,,,,,,0,29,29,29,,,,,,,,,,,,,,,,,,,,8,34.013,2117.8522746999515,None,1,3.507,,ar,003,2019_Sep_28_1125,EmotionSession,3.2.3,59.8272189575349,
,,,,,,,,,,,,,,,,,,,,,,,,,,,,,,,,,,,,,,,,,,,,,,,space,15.90066480007954,,,,,,,,,,,,,,,,ar,003,2019_Sep_28_1125,EmotionSession,3.2.3,59.8272189575349,
,,,,,,,,,,,,,,,,,,,,,,,,,,,,,,,,,,,,,,,,,,,,,,,,,2019-09-28_12:01:10,2019-09-28_12:06:10,6,13.15,,,,,,,,,,,,ar,003,2019_Sep_28_1125,EmotionSession,3.2.3,59.8272189575349,
,,,,,,,,,,,,,,,,,,,,,,,,,,,,,,,,,,,,,,,,,,,,,,,,,,,,,,,,,,,,,,,2019-09-28_12:06:35,,,,,,,
