Tick,Color,Tone,TimeDur,WordItem,WordColor,AnsLeft,AnsRight,AnsCorr,tick.thisRepN,tick.thisTrialN,tick.thisN,tick.thisIndex,stroop_trials.thisRepN,stroop_trials.thisTrialN,stroop_trials.thisN,stroop_trials.thisIndex,start_session_two,start_stress_one,end_stress_one,rating_evaluation_one.response,rating_evaluation_one.rt,rating_evaluation_two.response,rating_evaluation_two.rt,start_stress_two,key_resp_part_two_meas.keys,key_resp_part_two_meas.rt,key_resp_part_two_meas.started,key_resp_part_two_meas.stopped,end_stress_two,start_cooldown_measurement,end_cooldown_measurement,end_session_two,participant,session,date,expName,psychopyVersion,frameRate,
1,green,440,1.0,,,,,,0,0,0,0,,,,,2019-09-28_10:59:46,2019-09-28_11:01:27,,,,,,,,,,,,,,,ar,002,2019_Sep_28_1059,StressSession,3.2.3,59.97558994452047,
2,green,440,1.0,,,,,,0,1,1,1,,,,,,,,,,,,,,,,,,,,,ar,002,2019_Sep_28_1059,StressSession,3.2.3,59.97558994452047,
3,green,440,1.0,,,,,,0,2,2,2,,,,,,,,,,,,,,,,,,,,,ar,002,2019_Sep_28_1059,StressSession,3.2.3,59.97558994452047,
4,green,440,1.0,,,,,,0,3,3,3,,,,,,,,,,,,,,,,,,,,,ar,002,2019_Sep_28_1059,StressSession,3.2.3,59.97558994452047,
5,green,440,1.0,,,,,,0,4,4,4,,,,,,,,,,,,,,,,,,,,,ar,002,2019_Sep_28_1059,StressSession,3.2.3,59.97558994452047,
6,green,440,1.0,,,,,,0,5,5,5,,,,,,,,,,,,,,,,,,,,,ar,002,2019_Sep_28_1059,StressSession,3.2.3,59.97558994452047,
7,green,440,1.0,,,,,,0,6,6,6,,,,,,,,,,,,,,,,,,,,,ar,002,2019_Sep_28_1059,StressSession,3.2.3,59.97558994452047,
8,green,440,1.0,,,,,,0,7,7,7,,,,,,,,,,,,,,,,,,,,,ar,002,2019_Sep_28_1059,StressSession,3.2.3,59.97558994452047,
9,green,440,1.0,,,,,,0,8,8,8,,,,,,,,,,,,,,,,,,,,,ar,002,2019_Sep_28_1059,StressSession,3.2.3,59.97558994452047,
10,green,440,1.0,,,,,,0,9,9,9,,,,,,,,,,,,,,,,,,,,,ar,002,2019_Sep_28_1059,StressSession,3.2.3,59.97558994452047,
11,green,440,1.0,,,,,,0,10,10,10,,,,,,,,,,,,,,,,,,,,,ar,002,2019_Sep_28_1059,StressSession,3.2.3,59.97558994452047,
12,green,440,1.0,,,,,,0,11,11,11,,,,,,,,,,,,,,,,,,,,,ar,002,2019_Sep_28_1059,StressSession,3.2.3,59.97558994452047,
13,green,440,1.0,,,,,,0,12,12,12,,,,,,,,,,,,,,,,,,,,,ar,002,2019_Sep_28_1059,StressSession,3.2.3,59.97558994452047,
14,green,440,1.0,,,,,,0,13,13,13,,,,,,,,,,,,,,,,,,,,,ar,002,2019_Sep_28_1059,StressSession,3.2.3,59.97558994452047,
15,green,440,1.0,,,,,,0,14,14,14,,,,,,,,,,,,,,,,,,,,,ar,002,2019_Sep_28_1059,StressSession,3.2.3,59.97558994452047,
16,green,440,1.0,,,,,,0,15,15,15,,,,,,,,,,,,,,,,,,,,,ar,002,2019_Sep_28_1059,StressSession,3.2.3,59.97558994452047,
17,green,440,1.0,,,,,,0,16,16,16,,,,,,,,,,,,,,,,,,,,,ar,002,2019_Sep_28_1059,StressSession,3.2.3,59.97558994452047,
18,green,440,1.0,,,,,,0,17,17,17,,,,,,,,,,,,,,,,,,,,,ar,002,2019_Sep_28_1059,StressSession,3.2.3,59.97558994452047,
19,green,440,1.0,,,,,,0,18,18,18,,,,,,,,,,,,,,,,,,,,,ar,002,2019_Sep_28_1059,StressSession,3.2.3,59.97558994452047,
20,green,440,1.0,,,,,,0,19,19,19,,,,,,,,,,,,,,,,,,,,,ar,002,2019_Sep_28_1059,StressSession,3.2.3,59.97558994452047,
21,green,440,1.0,,,,,,0,20,20,20,,,,,,,,,,,,,,,,,,,,,ar,002,2019_Sep_28_1059,StressSession,3.2.3,59.97558994452047,
22,green,440,1.0,,,,,,0,21,21,21,,,,,,,,,,,,,,,,,,,,,ar,002,2019_Sep_28_1059,StressSession,3.2.3,59.97558994452047,
23,green,440,1.0,,,,,,0,22,22,22,,,,,,,,,,,,,,,,,,,,,ar,002,2019_Sep_28_1059,StressSession,3.2.3,59.97558994452047,
24,green,440,1.0,,,,,,0,23,23,23,,,,,,,,,,,,,,,,,,,,,ar,002,2019_Sep_28_1059,StressSession,3.2.3,59.97558994452047,
25,green,440,1.0,,,,,,0,24,24,24,,,,,,,,,,,,,,,,,,,,,ar,002,2019_Sep_28_1059,StressSession,3.2.3,59.97558994452047,
26,green,440,1.0,,,,,,0,25,25,25,,,,,,,,,,,,,,,,,,,,,ar,002,2019_Sep_28_1059,StressSession,3.2.3,59.97558994452047,
27,green,440,1.0,,,,,,0,26,26,26,,,,,,,,,,,,,,,,,,,,,ar,002,2019_Sep_28_1059,StressSession,3.2.3,59.97558994452047,
28,green,440,1.0,,,,,,0,27,27,27,,,,,,,,,,,,,,,,,,,,,ar,002,2019_Sep_28_1059,StressSession,3.2.3,59.97558994452047,
29,green,440,1.0,,,,,,0,28,28,28,,,,,,,,,,,,,,,,,,,,,ar,002,2019_Sep_28_1059,StressSession,3.2.3,59.97558994452047,
30,green,440,1.0,,,,,,0,29,29,29,,,,,,,,,,,,,,,,,,,,,ar,002,2019_Sep_28_1059,StressSession,3.2.3,59.97558994452047,
31,green,440,1.0,,,,,,0,30,30,30,,,,,,,,,,,,,,,,,,,,,ar,002,2019_Sep_28_1059,StressSession,3.2.3,59.97558994452047,
32,green,440,1.0,,,,,,0,31,31,31,,,,,,,,,,,,,,,,,,,,,ar,002,2019_Sep_28_1059,StressSession,3.2.3,59.97558994452047,
33,green,440,1.0,,,,,,0,32,32,32,,,,,,,,,,,,,,,,,,,,,ar,002,2019_Sep_28_1059,StressSession,3.2.3,59.97558994452047,
34,green,440,1.0,,,,,,0,33,33,33,,,,,,,,,,,,,,,,,,,,,ar,002,2019_Sep_28_1059,StressSession,3.2.3,59.97558994452047,
35,green,440,1.0,,,,,,0,34,34,34,,,,,,,,,,,,,,,,,,,,,ar,002,2019_Sep_28_1059,StressSession,3.2.3,59.97558994452047,
36,green,440,1.0,,,,,,0,35,35,35,,,,,,,,,,,,,,,,,,,,,ar,002,2019_Sep_28_1059,StressSession,3.2.3,59.97558994452047,
37,green,440,1.0,,,,,,0,36,36,36,,,,,,,,,,,,,,,,,,,,,ar,002,2019_Sep_28_1059,StressSession,3.2.3,59.97558994452047,
38,green,440,1.0,,,,,,0,37,37,37,,,,,,,,,,,,,,,,,,,,,ar,002,2019_Sep_28_1059,StressSession,3.2.3,59.97558994452047,
39,green,440,1.0,,,,,,0,38,38,38,,,,,,,,,,,,,,,,,,,,,ar,002,2019_Sep_28_1059,StressSession,3.2.3,59.97558994452047,
40,green,440,1.0,,,,,,0,39,39,39,,,,,,,,,,,,,,,,,,,,,ar,002,2019_Sep_28_1059,StressSession,3.2.3,59.97558994452047,
41,green,440,1.0,,,,,,0,40,40,40,,,,,,,,,,,,,,,,,,,,,ar,002,2019_Sep_28_1059,StressSession,3.2.3,59.97558994452047,
42,green,440,1.0,,,,,,0,41,41,41,,,,,,,,,,,,,,,,,,,,,ar,002,2019_Sep_28_1059,StressSession,3.2.3,59.97558994452047,
43,green,440,1.0,,,,,,0,42,42,42,,,,,,,,,,,,,,,,,,,,,ar,002,2019_Sep_28_1059,StressSession,3.2.3,59.97558994452047,
44,green,440,1.0,,,,,,0,43,43,43,,,,,,,,,,,,,,,,,,,,,ar,002,2019_Sep_28_1059,StressSession,3.2.3,59.97558994452047,
45,green,440,1.0,,,,,,0,44,44,44,,,,,,,,,,,,,,,,,,,,,ar,002,2019_Sep_28_1059,StressSession,3.2.3,59.97558994452047,
46,green,440,1.0,,,,,,0,45,45,45,,,,,,,,,,,,,,,,,,,,,ar,002,2019_Sep_28_1059,StressSession,3.2.3,59.97558994452047,
47,green,440,1.0,,,,,,0,46,46,46,,,,,,,,,,,,,,,,,,,,,ar,002,2019_Sep_28_1059,StressSession,3.2.3,59.97558994452047,
48,green,440,1.0,,,,,,0,47,47,47,,,,,,,,,,,,,,,,,,,,,ar,002,2019_Sep_28_1059,StressSession,3.2.3,59.97558994452047,
49,green,440,1.0,,,,,,0,48,48,48,,,,,,,,,,,,,,,,,,,,,ar,002,2019_Sep_28_1059,StressSession,3.2.3,59.97558994452047,
50,green,440,1.0,,,,,,0,49,49,49,,,,,,,,,,,,,,,,,,,,,ar,002,2019_Sep_28_1059,StressSession,3.2.3,59.97558994452047,
51,green,440,1.0,,,,,,0,50,50,50,,,,,,,,,,,,,,,,,,,,,ar,002,2019_Sep_28_1059,StressSession,3.2.3,59.97558994452047,
52,green,440,1.0,,,,,,0,51,51,51,,,,,,,,,,,,,,,,,,,,,ar,002,2019_Sep_28_1059,StressSession,3.2.3,59.97558994452047,
53,green,440,1.0,,,,,,0,52,52,52,,,,,,,,,,,,,,,,,,,,,ar,002,2019_Sep_28_1059,StressSession,3.2.3,59.97558994452047,
54,green,440,1.0,,,,,,0,53,53,53,,,,,,,,,,,,,,,,,,,,,ar,002,2019_Sep_28_1059,StressSession,3.2.3,59.97558994452047,
55,green,440,1.0,,,,,,0,54,54,54,,,,,,,,,,,,,,,,,,,,,ar,002,2019_Sep_28_1059,StressSession,3.2.3,59.97558994452047,
56,green,440,1.0,,,,,,0,55,55,55,,,,,,,,,,,,,,,,,,,,,ar,002,2019_Sep_28_1059,StressSession,3.2.3,59.97558994452047,
57,green,440,1.0,,,,,,0,56,56,56,,,,,,,,,,,,,,,,,,,,,ar,002,2019_Sep_28_1059,StressSession,3.2.3,59.97558994452047,
58,green,440,1.0,,,,,,0,57,57,57,,,,,,,,,,,,,,,,,,,,,ar,002,2019_Sep_28_1059,StressSession,3.2.3,59.97558994452047,
59,green,440,1.0,,,,,,0,58,58,58,,,,,,,,,,,,,,,,,,,,,ar,002,2019_Sep_28_1059,StressSession,3.2.3,59.97558994452047,
60,green,440,1.0,,,,,,0,59,59,59,,,,,,,,,,,,,,,,,,,,,ar,002,2019_Sep_28_1059,StressSession,3.2.3,59.97558994452047,
61,green,440,1.0,,,,,,0,60,60,60,,,,,,,,,,,,,,,,,,,,,ar,002,2019_Sep_28_1059,StressSession,3.2.3,59.97558994452047,
62,green,440,1.0,,,,,,0,61,61,61,,,,,,,,,,,,,,,,,,,,,ar,002,2019_Sep_28_1059,StressSession,3.2.3,59.97558994452047,
63,green,440,1.0,,,,,,0,62,62,62,,,,,,,,,,,,,,,,,,,,,ar,002,2019_Sep_28_1059,StressSession,3.2.3,59.97558994452047,
64,green,440,1.0,,,,,,0,63,63,63,,,,,,,,,,,,,,,,,,,,,ar,002,2019_Sep_28_1059,StressSession,3.2.3,59.97558994452047,
65,green,440,1.0,,,,,,0,64,64,64,,,,,,,,,,,,,,,,,,,,,ar,002,2019_Sep_28_1059,StressSession,3.2.3,59.97558994452047,
66,green,440,1.0,,,,,,0,65,65,65,,,,,,,,,,,,,,,,,,,,,ar,002,2019_Sep_28_1059,StressSession,3.2.3,59.97558994452047,
67,green,440,1.0,,,,,,0,66,66,66,,,,,,,,,,,,,,,,,,,,,ar,002,2019_Sep_28_1059,StressSession,3.2.3,59.97558994452047,
68,green,440,1.0,,,,,,0,67,67,67,,,,,,,,,,,,,,,,,,,,,ar,002,2019_Sep_28_1059,StressSession,3.2.3,59.97558994452047,
69,green,440,1.0,,,,,,0,68,68,68,,,,,,,,,,,,,,,,,,,,,ar,002,2019_Sep_28_1059,StressSession,3.2.3,59.97558994452047,
70,green,440,1.0,,,,,,0,69,69,69,,,,,,,,,,,,,,,,,,,,,ar,002,2019_Sep_28_1059,StressSession,3.2.3,59.97558994452047,
71,green,440,1.0,,,,,,0,70,70,70,,,,,,,,,,,,,,,,,,,,,ar,002,2019_Sep_28_1059,StressSession,3.2.3,59.97558994452047,
72,green,440,1.0,,,,,,0,71,71,71,,,,,,,,,,,,,,,,,,,,,ar,002,2019_Sep_28_1059,StressSession,3.2.3,59.97558994452047,
73,green,440,1.0,,,,,,0,72,72,72,,,,,,,,,,,,,,,,,,,,,ar,002,2019_Sep_28_1059,StressSession,3.2.3,59.97558994452047,
74,green,440,1.0,,,,,,0,73,73,73,,,,,,,,,,,,,,,,,,,,,ar,002,2019_Sep_28_1059,StressSession,3.2.3,59.97558994452047,
75,green,440,1.0,,,,,,0,74,74,74,,,,,,,,,,,,,,,,,,,,,ar,002,2019_Sep_28_1059,StressSession,3.2.3,59.97558994452047,
76,green,440,1.0,,,,,,0,75,75,75,,,,,,,,,,,,,,,,,,,,,ar,002,2019_Sep_28_1059,StressSession,3.2.3,59.97558994452047,
77,green,440,1.0,,,,,,0,76,76,76,,,,,,,,,,,,,,,,,,,,,ar,002,2019_Sep_28_1059,StressSession,3.2.3,59.97558994452047,
78,green,440,1.0,,,,,,0,77,77,77,,,,,,,,,,,,,,,,,,,,,ar,002,2019_Sep_28_1059,StressSession,3.2.3,59.97558994452047,
79,green,440,1.0,,,,,,0,78,78,78,,,,,,,,,,,,,,,,,,,,,ar,002,2019_Sep_28_1059,StressSession,3.2.3,59.97558994452047,
80,green,440,1.0,,,,,,0,79,79,79,,,,,,,,,,,,,,,,,,,,,ar,002,2019_Sep_28_1059,StressSession,3.2.3,59.97558994452047,
81,green,440,1.0,,,,,,0,80,80,80,,,,,,,,,,,,,,,,,,,,,ar,002,2019_Sep_28_1059,StressSession,3.2.3,59.97558994452047,
82,green,440,1.0,,,,,,0,81,81,81,,,,,,,,,,,,,,,,,,,,,ar,002,2019_Sep_28_1059,StressSession,3.2.3,59.97558994452047,
83,green,440,1.0,,,,,,0,82,82,82,,,,,,,,,,,,,,,,,,,,,ar,002,2019_Sep_28_1059,StressSession,3.2.3,59.97558994452047,
84,green,440,1.0,,,,,,0,83,83,83,,,,,,,,,,,,,,,,,,,,,ar,002,2019_Sep_28_1059,StressSession,3.2.3,59.97558994452047,
85,green,440,1.0,,,,,,0,84,84,84,,,,,,,,,,,,,,,,,,,,,ar,002,2019_Sep_28_1059,StressSession,3.2.3,59.97558994452047,
86,green,440,1.0,,,,,,0,85,85,85,,,,,,,,,,,,,,,,,,,,,ar,002,2019_Sep_28_1059,StressSession,3.2.3,59.97558994452047,
87,green,440,1.0,,,,,,0,86,86,86,,,,,,,,,,,,,,,,,,,,,ar,002,2019_Sep_28_1059,StressSession,3.2.3,59.97558994452047,
88,green,440,1.0,,,,,,0,87,87,87,,,,,,,,,,,,,,,,,,,,,ar,002,2019_Sep_28_1059,StressSession,3.2.3,59.97558994452047,
89,green,440,1.0,,,,,,0,88,88,88,,,,,,,,,,,,,,,,,,,,,ar,002,2019_Sep_28_1059,StressSession,3.2.3,59.97558994452047,
90,green,440,1.0,,,,,,0,89,89,89,,,,,,,,,,,,,,,,,,,,,ar,002,2019_Sep_28_1059,StressSession,3.2.3,59.97558994452047,
91,green,440,1.0,,,,,,0,90,90,90,,,,,,,,,,,,,,,,,,,,,ar,002,2019_Sep_28_1059,StressSession,3.2.3,59.97558994452047,
92,green,440,1.0,,,,,,0,91,91,91,,,,,,,,,,,,,,,,,,,,,ar,002,2019_Sep_28_1059,StressSession,3.2.3,59.97558994452047,
93,green,440,1.0,,,,,,0,92,92,92,,,,,,,,,,,,,,,,,,,,,ar,002,2019_Sep_28_1059,StressSession,3.2.3,59.97558994452047,
94,green,440,1.0,,,,,,0,93,93,93,,,,,,,,,,,,,,,,,,,,,ar,002,2019_Sep_28_1059,StressSession,3.2.3,59.97558994452047,
95,green,440,1.0,,,,,,0,94,94,94,,,,,,,,,,,,,,,,,,,,,ar,002,2019_Sep_28_1059,StressSession,3.2.3,59.97558994452047,
96,green,440,1.0,,,,,,0,95,95,95,,,,,,,,,,,,,,,,,,,,,ar,002,2019_Sep_28_1059,StressSession,3.2.3,59.97558994452047,
97,green,440,1.0,,,,,,0,96,96,96,,,,,,,,,,,,,,,,,,,,,ar,002,2019_Sep_28_1059,StressSession,3.2.3,59.97558994452047,
98,green,440,1.0,,,,,,0,97,97,97,,,,,,,,,,,,,,,,,,,,,ar,002,2019_Sep_28_1059,StressSession,3.2.3,59.97558994452047,
99,green,440,1.0,,,,,,0,98,98,98,,,,,,,,,,,,,,,,,,,,,ar,002,2019_Sep_28_1059,StressSession,3.2.3,59.97558994452047,
100,green,440,1.0,,,,,,0,99,99,99,,,,,,,,,,,,,,,,,,,,,ar,002,2019_Sep_28_1059,StressSession,3.2.3,59.97558994452047,
101,green,440,1.0,,,,,,0,100,100,100,,,,,,,,,,,,,,,,,,,,,ar,002,2019_Sep_28_1059,StressSession,3.2.3,59.97558994452047,
102,green,440,1.0,,,,,,0,101,101,101,,,,,,,,,,,,,,,,,,,,,ar,002,2019_Sep_28_1059,StressSession,3.2.3,59.97558994452047,
103,green,440,1.0,,,,,,0,102,102,102,,,,,,,,,,,,,,,,,,,,,ar,002,2019_Sep_28_1059,StressSession,3.2.3,59.97558994452047,
104,green,440,1.0,,,,,,0,103,103,103,,,,,,,,,,,,,,,,,,,,,ar,002,2019_Sep_28_1059,StressSession,3.2.3,59.97558994452047,
105,green,440,1.0,,,,,,0,104,104,104,,,,,,,,,,,,,,,,,,,,,ar,002,2019_Sep_28_1059,StressSession,3.2.3,59.97558994452047,
106,green,440,1.0,,,,,,0,105,105,105,,,,,,,,,,,,,,,,,,,,,ar,002,2019_Sep_28_1059,StressSession,3.2.3,59.97558994452047,
107,green,440,1.0,,,,,,0,106,106,106,,,,,,,,,,,,,,,,,,,,,ar,002,2019_Sep_28_1059,StressSession,3.2.3,59.97558994452047,
108,green,440,1.0,,,,,,0,107,107,107,,,,,,,,,,,,,,,,,,,,,ar,002,2019_Sep_28_1059,StressSession,3.2.3,59.97558994452047,
109,green,440,1.0,,,,,,0,108,108,108,,,,,,,,,,,,,,,,,,,,,ar,002,2019_Sep_28_1059,StressSession,3.2.3,59.97558994452047,
110,green,440,1.0,,,,,,0,109,109,109,,,,,,,,,,,,,,,,,,,,,ar,002,2019_Sep_28_1059,StressSession,3.2.3,59.97558994452047,
111,green,440,1.0,,,,,,0,110,110,110,,,,,,,,,,,,,,,,,,,,,ar,002,2019_Sep_28_1059,StressSession,3.2.3,59.97558994452047,
112,green,440,1.0,,,,,,0,111,111,111,,,,,,,,,,,,,,,,,,,,,ar,002,2019_Sep_28_1059,StressSession,3.2.3,59.97558994452047,
113,green,440,1.0,,,,,,0,112,112,112,,,,,,,,,,,,,,,,,,,,,ar,002,2019_Sep_28_1059,StressSession,3.2.3,59.97558994452047,
114,green,440,1.0,,,,,,0,113,113,113,,,,,,,,,,,,,,,,,,,,,ar,002,2019_Sep_28_1059,StressSession,3.2.3,59.97558994452047,
115,green,440,1.0,,,,,,0,114,114,114,,,,,,,,,,,,,,,,,,,,,ar,002,2019_Sep_28_1059,StressSession,3.2.3,59.97558994452047,
116,green,440,1.0,,,,,,0,115,115,115,,,,,,,,,,,,,,,,,,,,,ar,002,2019_Sep_28_1059,StressSession,3.2.3,59.97558994452047,
117,green,440,1.0,,,,,,0,116,116,116,,,,,,,,,,,,,,,,,,,,,ar,002,2019_Sep_28_1059,StressSession,3.2.3,59.97558994452047,
118,green,440,1.0,,,,,,0,117,117,117,,,,,,,,,,,,,,,,,,,,,ar,002,2019_Sep_28_1059,StressSession,3.2.3,59.97558994452047,
119,green,440,1.0,,,,,,0,118,118,118,,,,,,,,,,,,,,,,,,,,,ar,002,2019_Sep_28_1059,StressSession,3.2.3,59.97558994452047,
120,green,440,1.0,,,,,,0,119,119,119,,,,,,,,,,,,,,,,,,,,,ar,002,2019_Sep_28_1059,StressSession,3.2.3,59.97558994452047,
121,green,440,1.0,,,,,,0,120,120,120,,,,,,,,,,,,,,,,,,,,,ar,002,2019_Sep_28_1059,StressSession,3.2.3,59.97558994452047,
122,green,440,1.0,,,,,,0,121,121,121,,,,,,,,,,,,,,,,,,,,,ar,002,2019_Sep_28_1059,StressSession,3.2.3,59.97558994452047,
123,green,440,1.0,,,,,,0,122,122,122,,,,,,,,,,,,,,,,,,,,,ar,002,2019_Sep_28_1059,StressSession,3.2.3,59.97558994452047,
124,green,440,1.0,,,,,,0,123,123,123,,,,,,,,,,,,,,,,,,,,,ar,002,2019_Sep_28_1059,StressSession,3.2.3,59.97558994452047,
125,green,440,1.0,,,,,,0,124,124,124,,,,,,,,,,,,,,,,,,,,,ar,002,2019_Sep_28_1059,StressSession,3.2.3,59.97558994452047,
126,green,440,1.0,,,,,,0,125,125,125,,,,,,,,,,,,,,,,,,,,,ar,002,2019_Sep_28_1059,StressSession,3.2.3,59.97558994452047,
127,green,440,1.0,,,,,,0,126,126,126,,,,,,,,,,,,,,,,,,,,,ar,002,2019_Sep_28_1059,StressSession,3.2.3,59.97558994452047,
128,green,440,1.0,,,,,,0,127,127,127,,,,,,,,,,,,,,,,,,,,,ar,002,2019_Sep_28_1059,StressSession,3.2.3,59.97558994452047,
129,green,440,1.0,,,,,,0,128,128,128,,,,,,,,,,,,,,,,,,,,,ar,002,2019_Sep_28_1059,StressSession,3.2.3,59.97558994452047,
130,green,440,1.0,,,,,,0,129,129,129,,,,,,,,,,,,,,,,,,,,,ar,002,2019_Sep_28_1059,StressSession,3.2.3,59.97558994452047,
131,green,440,1.0,,,,,,0,130,130,130,,,,,,,,,,,,,,,,,,,,,ar,002,2019_Sep_28_1059,StressSession,3.2.3,59.97558994452047,
132,green,440,1.0,,,,,,0,131,131,131,,,,,,,,,,,,,,,,,,,,,ar,002,2019_Sep_28_1059,StressSession,3.2.3,59.97558994452047,
133,green,440,1.0,,,,,,0,132,132,132,,,,,,,,,,,,,,,,,,,,,ar,002,2019_Sep_28_1059,StressSession,3.2.3,59.97558994452047,
134,green,440,1.0,,,,,,0,133,133,133,,,,,,,,,,,,,,,,,,,,,ar,002,2019_Sep_28_1059,StressSession,3.2.3,59.97558994452047,
135,green,440,1.0,,,,,,0,134,134,134,,,,,,,,,,,,,,,,,,,,,ar,002,2019_Sep_28_1059,StressSession,3.2.3,59.97558994452047,
136,green,440,1.0,,,,,,0,135,135,135,,,,,,,,,,,,,,,,,,,,,ar,002,2019_Sep_28_1059,StressSession,3.2.3,59.97558994452047,
137,green,440,1.0,,,,,,0,136,136,136,,,,,,,,,,,,,,,,,,,,,ar,002,2019_Sep_28_1059,StressSession,3.2.3,59.97558994452047,
138,green,440,1.0,,,,,,0,137,137,137,,,,,,,,,,,,,,,,,,,,,ar,002,2019_Sep_28_1059,StressSession,3.2.3,59.97558994452047,
139,green,440,1.0,,,,,,0,138,138,138,,,,,,,,,,,,,,,,,,,,,ar,002,2019_Sep_28_1059,StressSession,3.2.3,59.97558994452047,
140,green,440,1.0,,,,,,0,139,139,139,,,,,,,,,,,,,,,,,,,,,ar,002,2019_Sep_28_1059,StressSession,3.2.3,59.97558994452047,
141,green,440,1.0,,,,,,0,140,140,140,,,,,,,,,,,,,,,,,,,,,ar,002,2019_Sep_28_1059,StressSession,3.2.3,59.97558994452047,
142,green,440,1.0,,,,,,0,141,141,141,,,,,,,,,,,,,,,,,,,,,ar,002,2019_Sep_28_1059,StressSession,3.2.3,59.97558994452047,
143,green,440,1.0,,,,,,0,142,142,142,,,,,,,,,,,,,,,,,,,,,ar,002,2019_Sep_28_1059,StressSession,3.2.3,59.97558994452047,
144,green,440,1.0,,,,,,0,143,143,143,,,,,,,,,,,,,,,,,,,,,ar,002,2019_Sep_28_1059,StressSession,3.2.3,59.97558994452047,
145,green,440,1.0,,,,,,0,144,144,144,,,,,,,,,,,,,,,,,,,,,ar,002,2019_Sep_28_1059,StressSession,3.2.3,59.97558994452047,
146,green,440,1.0,,,,,,0,145,145,145,,,,,,,,,,,,,,,,,,,,,ar,002,2019_Sep_28_1059,StressSession,3.2.3,59.97558994452047,
147,green,440,1.0,,,,,,0,146,146,146,,,,,,,,,,,,,,,,,,,,,ar,002,2019_Sep_28_1059,StressSession,3.2.3,59.97558994452047,
148,green,440,1.0,,,,,,0,147,147,147,,,,,,,,,,,,,,,,,,,,,ar,002,2019_Sep_28_1059,StressSession,3.2.3,59.97558994452047,
149,green,440,1.0,,,,,,0,148,148,148,,,,,,,,,,,,,,,,,,,,,ar,002,2019_Sep_28_1059,StressSession,3.2.3,59.97558994452047,
150,green,440,1.0,,,,,,0,149,149,149,,,,,,,,,,,,,,,,,,,,,ar,002,2019_Sep_28_1059,StressSession,3.2.3,59.97558994452047,
151,green,440,1.0,,,,,,0,150,150,150,,,,,,,,,,,,,,,,,,,,,ar,002,2019_Sep_28_1059,StressSession,3.2.3,59.97558994452047,
152,green,440,1.0,,,,,,0,151,151,151,,,,,,,,,,,,,,,,,,,,,ar,002,2019_Sep_28_1059,StressSession,3.2.3,59.97558994452047,
153,green,440,1.0,,,,,,0,152,152,152,,,,,,,,,,,,,,,,,,,,,ar,002,2019_Sep_28_1059,StressSession,3.2.3,59.97558994452047,
154,green,440,1.0,,,,,,0,153,153,153,,,,,,,,,,,,,,,,,,,,,ar,002,2019_Sep_28_1059,StressSession,3.2.3,59.97558994452047,
155,green,440,1.0,,,,,,0,154,154,154,,,,,,,,,,,,,,,,,,,,,ar,002,2019_Sep_28_1059,StressSession,3.2.3,59.97558994452047,
156,green,440,1.0,,,,,,0,155,155,155,,,,,,,,,,,,,,,,,,,,,ar,002,2019_Sep_28_1059,StressSession,3.2.3,59.97558994452047,
157,green,440,1.0,,,,,,0,156,156,156,,,,,,,,,,,,,,,,,,,,,ar,002,2019_Sep_28_1059,StressSession,3.2.3,59.97558994452047,
158,green,440,1.0,,,,,,0,157,157,157,,,,,,,,,,,,,,,,,,,,,ar,002,2019_Sep_28_1059,StressSession,3.2.3,59.97558994452047,
159,green,440,1.0,,,,,,0,158,158,158,,,,,,,,,,,,,,,,,,,,,ar,002,2019_Sep_28_1059,StressSession,3.2.3,59.97558994452047,
160,green,440,1.0,,,,,,0,159,159,159,,,,,,,,,,,,,,,,,,,,,ar,002,2019_Sep_28_1059,StressSession,3.2.3,59.97558994452047,
161,green,440,1.0,,,,,,0,160,160,160,,,,,,,,,,,,,,,,,,,,,ar,002,2019_Sep_28_1059,StressSession,3.2.3,59.97558994452047,
162,green,440,1.0,,,,,,0,161,161,161,,,,,,,,,,,,,,,,,,,,,ar,002,2019_Sep_28_1059,StressSession,3.2.3,59.97558994452047,
163,green,440,1.0,,,,,,0,162,162,162,,,,,,,,,,,,,,,,,,,,,ar,002,2019_Sep_28_1059,StressSession,3.2.3,59.97558994452047,
164,green,440,1.0,,,,,,0,163,163,163,,,,,,,,,,,,,,,,,,,,,ar,002,2019_Sep_28_1059,StressSession,3.2.3,59.97558994452047,
165,green,440,1.0,,,,,,0,164,164,164,,,,,,,,,,,,,,,,,,,,,ar,002,2019_Sep_28_1059,StressSession,3.2.3,59.97558994452047,
166,green,440,1.0,,,,,,0,165,165,165,,,,,,,,,,,,,,,,,,,,,ar,002,2019_Sep_28_1059,StressSession,3.2.3,59.97558994452047,
167,green,440,1.0,,,,,,0,166,166,166,,,,,,,,,,,,,,,,,,,,,ar,002,2019_Sep_28_1059,StressSession,3.2.3,59.97558994452047,
168,green,440,1.0,,,,,,0,167,167,167,,,,,,,,,,,,,,,,,,,,,ar,002,2019_Sep_28_1059,StressSession,3.2.3,59.97558994452047,
169,green,440,1.0,,,,,,0,168,168,168,,,,,,,,,,,,,,,,,,,,,ar,002,2019_Sep_28_1059,StressSession,3.2.3,59.97558994452047,
170,green,440,1.0,,,,,,0,169,169,169,,,,,,,,,,,,,,,,,,,,,ar,002,2019_Sep_28_1059,StressSession,3.2.3,59.97558994452047,
171,green,440,1.0,,,,,,0,170,170,170,,,,,,,,,,,,,,,,,,,,,ar,002,2019_Sep_28_1059,StressSession,3.2.3,59.97558994452047,
172,green,440,1.0,,,,,,0,171,171,171,,,,,,,,,,,,,,,,,,,,,ar,002,2019_Sep_28_1059,StressSession,3.2.3,59.97558994452047,
173,green,440,1.0,,,,,,0,172,172,172,,,,,,,,,,,,,,,,,,,,,ar,002,2019_Sep_28_1059,StressSession,3.2.3,59.97558994452047,
174,green,440,1.0,,,,,,0,173,173,173,,,,,,,,,,,,,,,,,,,,,ar,002,2019_Sep_28_1059,StressSession,3.2.3,59.97558994452047,
175,green,440,1.0,,,,,,0,174,174,174,,,,,,,,,,,,,,,,,,,,,ar,002,2019_Sep_28_1059,StressSession,3.2.3,59.97558994452047,
176,green,440,1.0,,,,,,0,175,175,175,,,,,,,,,,,,,,,,,,,,,ar,002,2019_Sep_28_1059,StressSession,3.2.3,59.97558994452047,
177,green,440,1.0,,,,,,0,176,176,176,,,,,,,,,,,,,,,,,,,,,ar,002,2019_Sep_28_1059,StressSession,3.2.3,59.97558994452047,
178,green,440,1.0,,,,,,0,177,177,177,,,,,,,,,,,,,,,,,,,,,ar,002,2019_Sep_28_1059,StressSession,3.2.3,59.97558994452047,
179,green,440,1.0,,,,,,0,178,178,178,,,,,,,,,,,,,,,,,,,,,ar,002,2019_Sep_28_1059,StressSession,3.2.3,59.97558994452047,
180,yellow,880,0.5,,,,,,0,179,179,179,,,,,,,,,,,,,,,,,,,,,ar,002,2019_Sep_28_1059,StressSession,3.2.3,59.97558994452047,
181,yellow,880,0.5,,,,,,0,180,180,180,,,,,,,,,,,,,,,,,,,,,ar,002,2019_Sep_28_1059,StressSession,3.2.3,59.97558994452047,
182,yellow,880,0.5,,,,,,0,181,181,181,,,,,,,,,,,,,,,,,,,,,ar,002,2019_Sep_28_1059,StressSession,3.2.3,59.97558994452047,
183,yellow,880,0.5,,,,,,0,182,182,182,,,,,,,,,,,,,,,,,,,,,ar,002,2019_Sep_28_1059,StressSession,3.2.3,59.97558994452047,
184,yellow,880,0.5,,,,,,0,183,183,183,,,,,,,,,,,,,,,,,,,,,ar,002,2019_Sep_28_1059,StressSession,3.2.3,59.97558994452047,
185,yellow,880,0.5,,,,,,0,184,184,184,,,,,,,,,,,,,,,,,,,,,ar,002,2019_Sep_28_1059,StressSession,3.2.3,59.97558994452047,
186,yellow,880,0.5,,,,,,0,185,185,185,,,,,,,,,,,,,,,,,,,,,ar,002,2019_Sep_28_1059,StressSession,3.2.3,59.97558994452047,
187,yellow,880,0.5,,,,,,0,186,186,186,,,,,,,,,,,,,,,,,,,,,ar,002,2019_Sep_28_1059,StressSession,3.2.3,59.97558994452047,
188,yellow,880,0.5,,,,,,0,187,187,187,,,,,,,,,,,,,,,,,,,,,ar,002,2019_Sep_28_1059,StressSession,3.2.3,59.97558994452047,
189,yellow,880,0.5,,,,,,0,188,188,188,,,,,,,,,,,,,,,,,,,,,ar,002,2019_Sep_28_1059,StressSession,3.2.3,59.97558994452047,
190,yellow,880,0.5,,,,,,0,189,189,189,,,,,,,,,,,,,,,,,,,,,ar,002,2019_Sep_28_1059,StressSession,3.2.3,59.97558994452047,
191,yellow,880,0.5,,,,,,0,190,190,190,,,,,,,,,,,,,,,,,,,,,ar,002,2019_Sep_28_1059,StressSession,3.2.3,59.97558994452047,
192,yellow,880,0.5,,,,,,0,191,191,191,,,,,,,,,,,,,,,,,,,,,ar,002,2019_Sep_28_1059,StressSession,3.2.3,59.97558994452047,
193,yellow,880,0.5,,,,,,0,192,192,192,,,,,,,,,,,,,,,,,,,,,ar,002,2019_Sep_28_1059,StressSession,3.2.3,59.97558994452047,
194,yellow,880,0.5,,,,,,0,193,193,193,,,,,,,,,,,,,,,,,,,,,ar,002,2019_Sep_28_1059,StressSession,3.2.3,59.97558994452047,
195,yellow,880,0.5,,,,,,0,194,194,194,,,,,,,,,,,,,,,,,,,,,ar,002,2019_Sep_28_1059,StressSession,3.2.3,59.97558994452047,
196,yellow,880,0.5,,,,,,0,195,195,195,,,,,,,,,,,,,,,,,,,,,ar,002,2019_Sep_28_1059,StressSession,3.2.3,59.97558994452047,
197,yellow,880,0.5,,,,,,0,196,196,196,,,,,,,,,,,,,,,,,,,,,ar,002,2019_Sep_28_1059,StressSession,3.2.3,59.97558994452047,
198,yellow,880,0.5,,,,,,0,197,197,197,,,,,,,,,,,,,,,,,,,,,ar,002,2019_Sep_28_1059,StressSession,3.2.3,59.97558994452047,
199,yellow,880,0.5,,,,,,0,198,198,198,,,,,,,,,,,,,,,,,,,,,ar,002,2019_Sep_28_1059,StressSession,3.2.3,59.97558994452047,
200,yellow,880,0.5,,,,,,0,199,199,199,,,,,,,,,,,,,,,,,,,,,ar,002,2019_Sep_28_1059,StressSession,3.2.3,59.97558994452047,
201,yellow,880,0.5,,,,,,0,200,200,200,,,,,,,,,,,,,,,,,,,,,ar,002,2019_Sep_28_1059,StressSession,3.2.3,59.97558994452047,
202,yellow,880,0.5,,,,,,0,201,201,201,,,,,,,,,,,,,,,,,,,,,ar,002,2019_Sep_28_1059,StressSession,3.2.3,59.97558994452047,
203,yellow,880,0.5,,,,,,0,202,202,202,,,,,,,,,,,,,,,,,,,,,ar,002,2019_Sep_28_1059,StressSession,3.2.3,59.97558994452047,
204,yellow,880,0.5,,,,,,0,203,203,203,,,,,,,,,,,,,,,,,,,,,ar,002,2019_Sep_28_1059,StressSession,3.2.3,59.97558994452047,
205,yellow,880,0.5,,,,,,0,204,204,204,,,,,,,,,,,,,,,,,,,,,ar,002,2019_Sep_28_1059,StressSession,3.2.3,59.97558994452047,
206,yellow,880,0.5,,,,,,0,205,205,205,,,,,,,,,,,,,,,,,,,,,ar,002,2019_Sep_28_1059,StressSession,3.2.3,59.97558994452047,
207,yellow,880,0.5,,,,,,0,206,206,206,,,,,,,,,,,,,,,,,,,,,ar,002,2019_Sep_28_1059,StressSession,3.2.3,59.97558994452047,
208,yellow,880,0.5,,,,,,0,207,207,207,,,,,,,,,,,,,,,,,,,,,ar,002,2019_Sep_28_1059,StressSession,3.2.3,59.97558994452047,
209,yellow,880,0.5,,,,,,0,208,208,208,,,,,,,,,,,,,,,,,,,,,ar,002,2019_Sep_28_1059,StressSession,3.2.3,59.97558994452047,
210,yellow,880,0.5,,,,,,0,209,209,209,,,,,,,,,,,,,,,,,,,,,ar,002,2019_Sep_28_1059,StressSession,3.2.3,59.97558994452047,
211,yellow,880,0.5,,,,,,0,210,210,210,,,,,,,,,,,,,,,,,,,,,ar,002,2019_Sep_28_1059,StressSession,3.2.3,59.97558994452047,
212,yellow,880,0.5,,,,,,0,211,211,211,,,,,,,,,,,,,,,,,,,,,ar,002,2019_Sep_28_1059,StressSession,3.2.3,59.97558994452047,
213,yellow,880,0.5,,,,,,0,212,212,212,,,,,,,,,,,,,,,,,,,,,ar,002,2019_Sep_28_1059,StressSession,3.2.3,59.97558994452047,
214,yellow,880,0.5,,,,,,0,213,213,213,,,,,,,,,,,,,,,,,,,,,ar,002,2019_Sep_28_1059,StressSession,3.2.3,59.97558994452047,
215,yellow,880,0.5,,,,,,0,214,214,214,,,,,,,,,,,,,,,,,,,,,ar,002,2019_Sep_28_1059,StressSession,3.2.3,59.97558994452047,
216,yellow,880,0.5,,,,,,0,215,215,215,,,,,,,,,,,,,,,,,,,,,ar,002,2019_Sep_28_1059,StressSession,3.2.3,59.97558994452047,
217,yellow,880,0.5,,,,,,0,216,216,216,,,,,,,,,,,,,,,,,,,,,ar,002,2019_Sep_28_1059,StressSession,3.2.3,59.97558994452047,
218,yellow,880,0.5,,,,,,0,217,217,217,,,,,,,,,,,,,,,,,,,,,ar,002,2019_Sep_28_1059,StressSession,3.2.3,59.97558994452047,
219,yellow,880,0.5,,,,,,0,218,218,218,,,,,,,,,,,,,,,,,,,,,ar,002,2019_Sep_28_1059,StressSession,3.2.3,59.97558994452047,
220,yellow,880,0.5,,,,,,0,219,219,219,,,,,,,,,,,,,,,,,,,,,ar,002,2019_Sep_28_1059,StressSession,3.2.3,59.97558994452047,
221,yellow,880,0.5,,,,,,0,220,220,220,,,,,,,,,,,,,,,,,,,,,ar,002,2019_Sep_28_1059,StressSession,3.2.3,59.97558994452047,
222,yellow,880,0.5,,,,,,0,221,221,221,,,,,,,,,,,,,,,,,,,,,ar,002,2019_Sep_28_1059,StressSession,3.2.3,59.97558994452047,
223,yellow,880,0.5,,,,,,0,222,222,222,,,,,,,,,,,,,,,,,,,,,ar,002,2019_Sep_28_1059,StressSession,3.2.3,59.97558994452047,
224,yellow,880,0.5,,,,,,0,223,223,223,,,,,,,,,,,,,,,,,,,,,ar,002,2019_Sep_28_1059,StressSession,3.2.3,59.97558994452047,
225,yellow,880,0.5,,,,,,0,224,224,224,,,,,,,,,,,,,,,,,,,,,ar,002,2019_Sep_28_1059,StressSession,3.2.3,59.97558994452047,
226,yellow,880,0.5,,,,,,0,225,225,225,,,,,,,,,,,,,,,,,,,,,ar,002,2019_Sep_28_1059,StressSession,3.2.3,59.97558994452047,
227,yellow,880,0.5,,,,,,0,226,226,226,,,,,,,,,,,,,,,,,,,,,ar,002,2019_Sep_28_1059,StressSession,3.2.3,59.97558994452047,
228,yellow,880,0.5,,,,,,0,227,227,227,,,,,,,,,,,,,,,,,,,,,ar,002,2019_Sep_28_1059,StressSession,3.2.3,59.97558994452047,
229,yellow,880,0.5,,,,,,0,228,228,228,,,,,,,,,,,,,,,,,,,,,ar,002,2019_Sep_28_1059,StressSession,3.2.3,59.97558994452047,
230,yellow,880,0.5,,,,,,0,229,229,229,,,,,,,,,,,,,,,,,,,,,ar,002,2019_Sep_28_1059,StressSession,3.2.3,59.97558994452047,
231,yellow,880,0.5,,,,,,0,230,230,230,,,,,,,,,,,,,,,,,,,,,ar,002,2019_Sep_28_1059,StressSession,3.2.3,59.97558994452047,
232,yellow,880,0.5,,,,,,0,231,231,231,,,,,,,,,,,,,,,,,,,,,ar,002,2019_Sep_28_1059,StressSession,3.2.3,59.97558994452047,
233,yellow,880,0.5,,,,,,0,232,232,232,,,,,,,,,,,,,,,,,,,,,ar,002,2019_Sep_28_1059,StressSession,3.2.3,59.97558994452047,
234,yellow,880,0.5,,,,,,0,233,233,233,,,,,,,,,,,,,,,,,,,,,ar,002,2019_Sep_28_1059,StressSession,3.2.3,59.97558994452047,
235,yellow,880,0.5,,,,,,0,234,234,234,,,,,,,,,,,,,,,,,,,,,ar,002,2019_Sep_28_1059,StressSession,3.2.3,59.97558994452047,
236,yellow,880,0.5,,,,,,0,235,235,235,,,,,,,,,,,,,,,,,,,,,ar,002,2019_Sep_28_1059,StressSession,3.2.3,59.97558994452047,
237,yellow,880,0.5,,,,,,0,236,236,236,,,,,,,,,,,,,,,,,,,,,ar,002,2019_Sep_28_1059,StressSession,3.2.3,59.97558994452047,
238,yellow,880,0.5,,,,,,0,237,237,237,,,,,,,,,,,,,,,,,,,,,ar,002,2019_Sep_28_1059,StressSession,3.2.3,59.97558994452047,
239,yellow,880,0.5,,,,,,0,238,238,238,,,,,,,,,,,,,,,,,,,,,ar,002,2019_Sep_28_1059,StressSession,3.2.3,59.97558994452047,
240,red,1760,0.5,,,,,,0,239,239,239,,,,,,,,,,,,,,,,,,,,,ar,002,2019_Sep_28_1059,StressSession,3.2.3,59.97558994452047,
241,red,1760,0.5,,,,,,0,240,240,240,,,,,,,,,,,,,,,,,,,,,ar,002,2019_Sep_28_1059,StressSession,3.2.3,59.97558994452047,
242,red,1760,0.5,,,,,,0,241,241,241,,,,,,,,,,,,,,,,,,,,,ar,002,2019_Sep_28_1059,StressSession,3.2.3,59.97558994452047,
243,red,1760,0.5,,,,,,0,242,242,242,,,,,,,,,,,,,,,,,,,,,ar,002,2019_Sep_28_1059,StressSession,3.2.3,59.97558994452047,
244,red,1760,0.5,,,,,,0,243,243,243,,,,,,,,,,,,,,,,,,,,,ar,002,2019_Sep_28_1059,StressSession,3.2.3,59.97558994452047,
245,red,1760,0.5,,,,,,0,244,244,244,,,,,,,,,,,,,,,,,,,,,ar,002,2019_Sep_28_1059,StressSession,3.2.3,59.97558994452047,
246,red,1760,0.5,,,,,,0,245,245,245,,,,,,,,,,,,,,,,,,,,,ar,002,2019_Sep_28_1059,StressSession,3.2.3,59.97558994452047,
247,red,1760,0.5,,,,,,0,246,246,246,,,,,,,,,,,,,,,,,,,,,ar,002,2019_Sep_28_1059,StressSession,3.2.3,59.97558994452047,
248,red,1760,0.5,,,,,,0,247,247,247,,,,,,,,,,,,,,,,,,,,,ar,002,2019_Sep_28_1059,StressSession,3.2.3,59.97558994452047,
249,red,1760,0.5,,,,,,0,248,248,248,,,,,,,,,,,,,,,,,,,,,ar,002,2019_Sep_28_1059,StressSession,3.2.3,59.97558994452047,
250,red,1760,0.5,,,,,,0,249,249,249,,,,,,,,,,,,,,,,,,,,,ar,002,2019_Sep_28_1059,StressSession,3.2.3,59.97558994452047,
251,red,1760,0.5,,,,,,0,250,250,250,,,,,,,,,,,,,,,,,,,,,ar,002,2019_Sep_28_1059,StressSession,3.2.3,59.97558994452047,
252,red,1760,0.5,,,,,,0,251,251,251,,,,,,,,,,,,,,,,,,,,,ar,002,2019_Sep_28_1059,StressSession,3.2.3,59.97558994452047,
253,red,1760,0.5,,,,,,0,252,252,252,,,,,,,,,,,,,,,,,,,,,ar,002,2019_Sep_28_1059,StressSession,3.2.3,59.97558994452047,
254,red,1760,0.5,,,,,,0,253,253,253,,,,,,,,,,,,,,,,,,,,,ar,002,2019_Sep_28_1059,StressSession,3.2.3,59.97558994452047,
255,red,1760,0.5,,,,,,0,254,254,254,,,,,,,,,,,,,,,,,,,,,ar,002,2019_Sep_28_1059,StressSession,3.2.3,59.97558994452047,
256,red,1760,0.5,,,,,,0,255,255,255,,,,,,,,,,,,,,,,,,,,,ar,002,2019_Sep_28_1059,StressSession,3.2.3,59.97558994452047,
257,red,1760,0.5,,,,,,0,256,256,256,,,,,,,,,,,,,,,,,,,,,ar,002,2019_Sep_28_1059,StressSession,3.2.3,59.97558994452047,
258,red,1760,0.5,,,,,,0,257,257,257,,,,,,,,,,,,,,,,,,,,,ar,002,2019_Sep_28_1059,StressSession,3.2.3,59.97558994452047,
259,red,1760,0.5,,,,,,0,258,258,258,,,,,,,,,,,,,,,,,,,,,ar,002,2019_Sep_28_1059,StressSession,3.2.3,59.97558994452047,
260,red,1760,0.5,,,,,,0,259,259,259,,,,,,,,,,,,,,,,,,,,,ar,002,2019_Sep_28_1059,StressSession,3.2.3,59.97558994452047,
261,red,1760,0.5,,,,,,0,260,260,260,,,,,,,,,,,,,,,,,,,,,ar,002,2019_Sep_28_1059,StressSession,3.2.3,59.97558994452047,
262,red,1760,0.5,,,,,,0,261,261,261,,,,,,,,,,,,,,,,,,,,,ar,002,2019_Sep_28_1059,StressSession,3.2.3,59.97558994452047,
263,red,1760,0.5,,,,,,0,262,262,262,,,,,,,,,,,,,,,,,,,,,ar,002,2019_Sep_28_1059,StressSession,3.2.3,59.97558994452047,
264,red,1760,0.5,,,,,,0,263,263,263,,,,,,,,,,,,,,,,,,,,,ar,002,2019_Sep_28_1059,StressSession,3.2.3,59.97558994452047,
265,red,1760,0.5,,,,,,0,264,264,264,,,,,,,,,,,,,,,,,,,,,ar,002,2019_Sep_28_1059,StressSession,3.2.3,59.97558994452047,
266,red,1760,0.5,,,,,,0,265,265,265,,,,,,,,,,,,,,,,,,,,,ar,002,2019_Sep_28_1059,StressSession,3.2.3,59.97558994452047,
267,red,1760,0.5,,,,,,0,266,266,266,,,,,,,,,,,,,,,,,,,,,ar,002,2019_Sep_28_1059,StressSession,3.2.3,59.97558994452047,
268,red,1760,0.5,,,,,,0,267,267,267,,,,,,,,,,,,,,,,,,,,,ar,002,2019_Sep_28_1059,StressSession,3.2.3,59.97558994452047,
269,red,1760,0.5,,,,,,0,268,268,268,,,,,,,,,,,,,,,,,,,,,ar,002,2019_Sep_28_1059,StressSession,3.2.3,59.97558994452047,
270,red,1760,0.5,,,,,,0,269,269,269,,,,,,,,,,,,,,,,,,,,,ar,002,2019_Sep_28_1059,StressSession,3.2.3,59.97558994452047,
271,red,1760,0.5,,,,,,0,270,270,270,,,,,,,,,,,,,,,,,,,,,ar,002,2019_Sep_28_1059,StressSession,3.2.3,59.97558994452047,
272,red,1760,0.5,,,,,,0,271,271,271,,,,,,,,,,,,,,,,,,,,,ar,002,2019_Sep_28_1059,StressSession,3.2.3,59.97558994452047,
273,red,1760,0.5,,,,,,0,272,272,272,,,,,,,,,,,,,,,,,,,,,ar,002,2019_Sep_28_1059,StressSession,3.2.3,59.97558994452047,
274,red,1760,0.5,,,,,,0,273,273,273,,,,,,,,,,,,,,,,,,,,,ar,002,2019_Sep_28_1059,StressSession,3.2.3,59.97558994452047,
275,red,1760,0.5,,,,,,0,274,274,274,,,,,,,,,,,,,,,,,,,,,ar,002,2019_Sep_28_1059,StressSession,3.2.3,59.97558994452047,
276,red,1760,0.5,,,,,,0,275,275,275,,,,,,,,,,,,,,,,,,,,,ar,002,2019_Sep_28_1059,StressSession,3.2.3,59.97558994452047,
277,red,1760,0.5,,,,,,0,276,276,276,,,,,,,,,,,,,,,,,,,,,ar,002,2019_Sep_28_1059,StressSession,3.2.3,59.97558994452047,
278,red,1760,0.5,,,,,,0,277,277,277,,,,,,,,,,,,,,,,,,,,,ar,002,2019_Sep_28_1059,StressSession,3.2.3,59.97558994452047,
279,red,1760,0.5,,,,,,0,278,278,278,,,,,,,,,,,,,,,,,,,,,ar,002,2019_Sep_28_1059,StressSession,3.2.3,59.97558994452047,
280,red,1760,0.5,,,,,,0,279,279,279,,,,,,,,,,,,,,,,,,,,,ar,002,2019_Sep_28_1059,StressSession,3.2.3,59.97558994452047,
281,red,1760,0.5,,,,,,0,280,280,280,,,,,,,,,,,,,,,,,,,,,ar,002,2019_Sep_28_1059,StressSession,3.2.3,59.97558994452047,
282,red,1760,0.5,,,,,,0,281,281,281,,,,,,,,,,,,,,,,,,,,,ar,002,2019_Sep_28_1059,StressSession,3.2.3,59.97558994452047,
283,red,1760,0.5,,,,,,0,282,282,282,,,,,,,,,,,,,,,,,,,,,ar,002,2019_Sep_28_1059,StressSession,3.2.3,59.97558994452047,
284,red,1760,0.5,,,,,,0,283,283,283,,,,,,,,,,,,,,,,,,,,,ar,002,2019_Sep_28_1059,StressSession,3.2.3,59.97558994452047,
285,red,1760,0.5,,,,,,0,284,284,284,,,,,,,,,,,,,,,,,,,,,ar,002,2019_Sep_28_1059,StressSession,3.2.3,59.97558994452047,
286,red,1760,0.5,,,,,,0,285,285,285,,,,,,,,,,,,,,,,,,,,,ar,002,2019_Sep_28_1059,StressSession,3.2.3,59.97558994452047,
287,red,1760,0.5,,,,,,0,286,286,286,,,,,,,,,,,,,,,,,,,,,ar,002,2019_Sep_28_1059,StressSession,3.2.3,59.97558994452047,
288,red,1760,0.5,,,,,,0,287,287,287,,,,,,,,,,,,,,,,,,,,,ar,002,2019_Sep_28_1059,StressSession,3.2.3,59.97558994452047,
289,red,1760,0.5,,,,,,0,288,288,288,,,,,,,,,,,,,,,,,,,,,ar,002,2019_Sep_28_1059,StressSession,3.2.3,59.97558994452047,
290,red,1760,0.5,,,,,,0,289,289,289,,,,,,,,,,,,,,,,,,,,,ar,002,2019_Sep_28_1059,StressSession,3.2.3,59.97558994452047,
291,red,1760,0.5,,,,,,0,290,290,290,,,,,,,,,,,,,,,,,,,,,ar,002,2019_Sep_28_1059,StressSession,3.2.3,59.97558994452047,
292,red,1760,0.5,,,,,,0,291,291,291,,,,,,,,,,,,,,,,,,,,,ar,002,2019_Sep_28_1059,StressSession,3.2.3,59.97558994452047,
293,red,1760,0.5,,,,,,0,292,292,292,,,,,,,,,,,,,,,,,,,,,ar,002,2019_Sep_28_1059,StressSession,3.2.3,59.97558994452047,
294,red,1760,0.5,,,,,,0,293,293,293,,,,,,,,,,,,,,,,,,,,,ar,002,2019_Sep_28_1059,StressSession,3.2.3,59.97558994452047,
295,red,1760,0.5,,,,,,0,294,294,294,,,,,,,,,,,,,,,,,,,,,ar,002,2019_Sep_28_1059,StressSession,3.2.3,59.97558994452047,
296,red,1760,0.5,,,,,,0,295,295,295,,,,,,,,,,,,,,,,,,,,,ar,002,2019_Sep_28_1059,StressSession,3.2.3,59.97558994452047,
297,red,1760,0.5,,,,,,0,296,296,296,,,,,,,,,,,,,,,,,,,,,ar,002,2019_Sep_28_1059,StressSession,3.2.3,59.97558994452047,
298,red,1760,0.5,,,,,,0,297,297,297,,,,,,,,,,,,,,,,,,,,,ar,002,2019_Sep_28_1059,StressSession,3.2.3,59.97558994452047,
299,red,1760,0.5,,,,,,0,298,298,298,,,,,,,,,,,,,,,,,,,,,ar,002,2019_Sep_28_1059,StressSession,3.2.3,59.97558994452047,
300,red,1760,0.5,,,,,,0,299,299,299,,,,,,,,,,,,,,,,,,,,,ar,002,2019_Sep_28_1059,StressSession,3.2.3,59.97558994452047,
,,,,,,,,,,,,,,,,,,,2019-09-28_11:07:57,4,44.736,,,,,,,,,,,,ar,002,2019_Sep_28_1059,StressSession,3.2.3,59.97558994452047,
,,,,,,,,,,,,,,,,,,,,,,10,6.092,,,,,,,,,,ar,002,2019_Sep_28_1059,StressSession,3.2.3,59.97558994452047,
,,,,schwarz,yellow,gelb,schwarz,left,,,,,0,0,0,215,,,,,,,,2019-09-28_11:10:54,left,1.5345303999492899,683.3251159999054,None,,,,,ar,002,2019_Sep_28_1059,StressSession,3.2.3,59.97558994452047,
,,,,magenta,yellow,magenta,gelb,right,,,,,0,1,1,31,,,,,,,,,right,1.1961538000032306,685.4153024000116,None,,,,,ar,002,2019_Sep_28_1059,StressSession,3.2.3,59.97558994452047,
,,,,orange,red,orange,rot,right,,,,,0,2,2,64,,,,,,,,,right,1.2757580999750644,687.151720099966,None,,,,,ar,002,2019_Sep_28_1059,StressSession,3.2.3,59.97558994452047,
,,,,gelb,brown,braun,gelb,left,,,,,0,3,3,162,,,,,,,,,left,1.8768045998876914,688.9666142999195,None,,,,,ar,002,2019_Sep_28_1059,StressSession,3.2.3,59.97558994452047,
,,,,orange,black,orange,schwarz,right,,,,,0,4,4,63,,,,,,,,,right,1.3610352000687271,691.3867336999392,None,,,,,ar,002,2019_Sep_28_1059,StressSession,3.2.3,59.97558994452047,
,,,,weiß,magenta,magenta,weiß,left,,,,,0,5,5,204,,,,,,,,,right,1.7563974999357015,693.2951469999971,None,,,,,ar,002,2019_Sep_28_1059,StressSession,3.2.3,59.97558994452047,
,,,,magenta,orange,magenta,orange,right,,,,,0,6,6,32,,,,,,,,,right,3.917722199927084,695.5977878998965,None,,,,,ar,002,2019_Sep_28_1059,StressSession,3.2.3,59.97558994452047,
,,,,schwarz,red,rot,schwarz,left,,,,,0,7,7,210,,,,,,,,,left,0.9840272000292316,700.0674198999768,None,,,,,ar,002,2019_Sep_28_1059,StressSession,3.2.3,59.97558994452047,
,,,,violett,green,violett,gruen,right,,,,,0,8,8,75,,,,,,,,,right,1.138471100013703,701.60899410001,None,,,,,ar,002,2019_Sep_28_1059,StressSession,3.2.3,59.97558994452047,
,,,,orange,blue,orange,blau,right,,,,,0,9,9,65,,,,,,,,,right,0.9027656000107527,703.3008870999329,None,,,,,ar,002,2019_Sep_28_1059,StressSession,3.2.3,59.97558994452047,
,,,,violett,magenta,violett,magenta,right,,,,,0,10,10,76,,,,,,,,,right,4.943917999975383,704.7556167999282,None,,,,,ar,002,2019_Sep_28_1059,StressSession,3.2.3,59.97558994452047,
,,,,schwarz,red,schwarz,rot,right,,,,,0,11,11,100,,,,,,,,,right,1.3245332000078633,710.246937799966,None,,,,,ar,002,2019_Sep_28_1059,StressSession,3.2.3,59.97558994452047,
,,,,magenta,brown,braun,magenta,left,,,,,0,12,12,144,,,,,,,,,left,1.4564053999492899,712.1149531999836,None,,,,,ar,002,2019_Sep_28_1059,StressSession,3.2.3,59.97558994452047,
,,,,gelb,white,weiß,gelb,left,,,,,0,13,13,163,,,,,,,,,left,2.307184499921277,714.1124072999228,None,,,,,ar,002,2019_Sep_28_1059,StressSession,3.2.3,59.97558994452047,
,,,,gelb,white,gelb,weiß,right,,,,,0,14,14,53,,,,,,,,,right,1.5626423000358045,716.9529245999875,None,,,,,ar,002,2019_Sep_28_1059,StressSession,3.2.3,59.97558994452047,
,,,,schwarz,yellow,schwarz,gelb,right,,,,,0,15,15,105,,,,,,,,,right,2.1649019999895245,719.0627038999228,None,,,,,ar,002,2019_Sep_28_1059,StressSession,3.2.3,59.97558994452047,
,,,,cyan,orange,cyan,orange,right,,,,,0,16,16,41,,,,,,,,,right,1.1967422999441624,721.7825837999117,None,,,,,ar,002,2019_Sep_28_1059,StressSession,3.2.3,59.97558994452047,
,,,,gelb,purple,gelb,violett,right,,,,,0,17,17,51,,,,,,,,,right,1.7106120000826195,723.524851599941,None,,,,,ar,002,2019_Sep_28_1059,StressSession,3.2.3,59.97558994452047,
,,,,rot,blue,rot,blau,right,,,,,0,18,18,0,,,,,,,,,right,1.8216102999867871,725.7739461999154,None,,,,,ar,002,2019_Sep_28_1059,StressSession,3.2.3,59.97558994452047,
,,,,cyan,orange,orange,cyan,left,,,,,0,19,19,151,,,,,,,,,left,1.3850508000468835,728.1464749999577,None,,,,,ar,002,2019_Sep_28_1059,StressSession,3.2.3,59.97558994452047,
,,,,orange,green,orange,gruen,right,,,,,0,20,20,66,,,,,,,,,right,0.9610575999831781,730.0751997999614,None,,,,,ar,002,2019_Sep_28_1059,StressSession,3.2.3,59.97558994452047,
,,,,orange,purple,violett,orange,left,,,,,0,21,21,170,,,,,,,,,left,1.4392151000211015,731.5723103999626,None,,,,,ar,002,2019_Sep_28_1059,StressSession,3.2.3,59.97558994452047,
,,,,schwarz,green,gruen,schwarz,left,,,,,0,22,22,212,,,,,,,,,left,1.3003982999362051,733.5589545000112,None,,,,,ar,002,2019_Sep_28_1059,StressSession,3.2.3,59.97558994452047,
,,,,blau,black,schwarz,blau,left,,,,,0,23,23,128,,,,,,,,,left,0.9612785000354052,735.4021007999545,None,,,,,ar,002,2019_Sep_28_1059,StressSession,3.2.3,59.97558994452047,
,,,,weiß,orange,orange,weiß,left,,,,,0,24,24,207,,,,,,,,,left,1.744051399989985,736.9081093999557,None,,,,,ar,002,2019_Sep_28_1059,StressSession,3.2.3,59.97558994452047,
,,,,weiß,blue,weiß,blau,right,,,,,0,25,25,92,,,,,,,,,right,0.8036758999805897,739.1839058999904,None,,,,,ar,002,2019_Sep_28_1059,StressSession,3.2.3,59.97558994452047,
,,,,rot,yellow,rot,gelb,right,,,,,0,26,26,4,,,,,,,,,right,1.5807419999036938,740.5195062999846,None,,,,,ar,002,2019_Sep_28_1059,StressSession,3.2.3,59.97558994452047,
,,,,gruen,purple,gruen,violett,right,,,,,0,27,27,24,,,,,,,,,right,1.2497740000253543,742.6418717999477,None,,,,,ar,002,2019_Sep_28_1059,StressSession,3.2.3,59.97558994452047,
,,,,gruen,orange,gruen,orange,right,,,,,0,28,28,23,,,,,,,,,right,0.9126836999785155,744.4267982000019,None,,,,,ar,002,2019_Sep_28_1059,StressSession,3.2.3,59.97558994452047,
,,,,schwarz,brown,braun,schwarz,left,,,,,0,29,29,218,,,,,,,,,left,1.2504796999273822,745.8892071999144,None,,,,,ar,002,2019_Sep_28_1059,StressSession,3.2.3,59.97558994452047,
,,,,blau,white,blau,weiß,right,,,,,0,30,30,17,,,,,,,,,right,1.2389497999101877,747.6846034999471,None,,,,,ar,002,2019_Sep_28_1059,StressSession,3.2.3,59.97558994452047,
,,,,cyan,green,cyan,gruen,right,,,,,0,31,31,48,,,,,,,,,right,1.00672249996569,749.4690129999071,None,,,,,ar,002,2019_Sep_28_1059,StressSession,3.2.3,59.97558994452047,
,,,,violett,orange,violett,orange,right,,,,,0,32,32,79,,,,,,,,,right,1.5965645000105724,751.0230362999719,None,,,,,ar,002,2019_Sep_28_1059,StressSession,3.2.3,59.97558994452047,
,,,,weiß,cyan,weiß,cyan,right,,,,,0,33,33,95,,,,,,,,,right,0.9875947999535128,753.1678749999264,None,,,,,ar,002,2019_Sep_28_1059,StressSession,3.2.3,59.97558994452047,
,,,,schwarz,white,weiß,schwarz,left,,,,,0,34,34,219,,,,,,,,,left,1.0546447000233456,754.7007958999602,None,,,,,ar,002,2019_Sep_28_1059,StressSession,3.2.3,59.97558994452047,
,,,,gruen,cyan,cyan,gruen,left,,,,,0,35,35,131,,,,,,,,,left,0.931525900028646,756.3040768000064,None,,,,,ar,002,2019_Sep_28_1059,StressSession,3.2.3,59.97558994452047,
,,,,violett,yellow,gelb,violett,left,,,,,0,36,36,188,,,,,,,,,left,0.8864888999378309,757.7810627999716,None,,,,,ar,002,2019_Sep_28_1059,StressSession,3.2.3,59.97558994452047,
,,,,gruen,magenta,gruen,magenta,right,,,,,0,37,37,20,,,,,,,,,right,0.967149700038135,759.2203676999779,None,,,,,ar,002,2019_Sep_28_1059,StressSession,3.2.3,59.97558994452047,
,,,,magenta,red,magenta,rot,right,,,,,0,38,38,37,,,,,,,,,right,0.8059926000423729,760.7335789999925,None,,,,,ar,002,2019_Sep_28_1059,StressSession,3.2.3,59.97558994452047,
,,,,cyan,brown,braun,cyan,left,,,,,0,39,39,153,,,,,,,,,left,0.887687599984929,762.0838967999443,None,,,,,ar,002,2019_Sep_28_1059,StressSession,3.2.3,59.97558994452047,
,,,,weiß,green,gruen,weiß,left,,,,,0,40,40,203,,,,,,,,,left,0.8311256999149919,763.5165286998963,None,,,,,ar,002,2019_Sep_28_1059,StressSession,3.2.3,59.97558994452047,
,,,,violett,white,violett,weiß,right,,,,,0,41,41,71,,,,,,,,,right,0.8672260000603274,764.8802941999165,None,,,,,ar,002,2019_Sep_28_1059,StressSession,3.2.3,59.97558994452047,
,,,,cyan,black,schwarz,cyan,left,,,,,0,42,42,155,,,,,,,,,left,0.837264799978584,766.2784332999727,None,,,,,ar,002,2019_Sep_28_1059,StressSession,3.2.3,59.97558994452047,
,,,,blau,orange,blau,orange,right,,,,,0,43,43,14,,,,,,,,,right,0.7800934000406414,767.6640259999549,None,,,,,ar,002,2019_Sep_28_1059,StressSession,3.2.3,59.97558994452047,
,,,,cyan,white,weiß,cyan,left,,,,,0,44,44,154,,,,,,,,,left,0.9892353999894112,768.9821535999654,None,,,,,ar,002,2019_Sep_28_1059,StressSession,3.2.3,59.97558994452047,
,,,,braun,purple,violett,braun,left,,,,,0,45,45,199,,,,,,,,,left,0.9107953000348061,770.517178799957,None,,,,,ar,002,2019_Sep_28_1059,StressSession,3.2.3,59.97558994452047,
,,,,violett,orange,orange,violett,left,,,,,0,46,46,189,,,,,,,,,left,0.8033494999399409,771.9683444999391,None,,,,,ar,002,2019_Sep_28_1059,StressSession,3.2.3,59.97558994452047,
,,,,magenta,black,magenta,schwarz,right,,,,,0,47,47,36,,,,,,,,,right,0.8415192000102252,773.3220802999567,None,,,,,ar,002,2019_Sep_28_1059,StressSession,3.2.3,59.97558994452047,
,,,,orange,red,rot,orange,left,,,,,0,48,48,174,,,,,,,,,left,0.7123268999857828,774.7156454999931,None,,,,,ar,002,2019_Sep_28_1059,StressSession,3.2.3,59.97558994452047,
,,,,gelb,green,gelb,gruen,right,,,,,0,49,49,57,,,,,,,,,right,1.15022469998803,775.9652741999598,None,,,,,ar,002,2019_Sep_28_1059,StressSession,3.2.3,59.97558994452047,
,,,,rot,white,rot,weiß,right,,,,,0,50,50,8,,,,,,,,,right,0.9184260999318212,777.6611134998966,None,,,,,ar,002,2019_Sep_28_1059,StressSession,3.2.3,59.97558994452047,
,,,,violett,green,gruen,violett,left,,,,,0,51,51,185,,,,,,,,,left,0.9665585999609903,779.1329807000002,None,,,,,ar,002,2019_Sep_28_1059,StressSession,3.2.3,59.97558994452047,
,,,,rot,blue,blau,rot,left,,,,,0,52,52,110,,,,,,,,,left,0.8562241999898106,780.6432517999783,None,,,,,ar,002,2019_Sep_28_1059,StressSession,3.2.3,59.97558994452047,
,,,,braun,red,rot,braun,left,,,,,0,53,53,192,,,,,,,,,left,0.8392274000216275,782.0442709999625,None,,,,,ar,002,2019_Sep_28_1059,StressSession,3.2.3,59.97558994452047,
,,,,weiß,red,weiß,rot,right,,,,,0,54,54,91,,,,,,,,,right,1.337930200039409,783.4254965999862,None,,,,,ar,002,2019_Sep_28_1059,StressSession,3.2.3,59.97558994452047,
,,,,braun,green,gruen,braun,left,,,,,0,55,55,194,,,,,,,,,left,1.4729981999844313,785.314513499965,None,,,,,ar,002,2019_Sep_28_1059,StressSession,3.2.3,59.97558994452047,
,,,,schwarz,green,schwarz,gruen,right,,,,,0,56,56,102,,,,,,,,,right,0.7930992000037804,787.3308034999063,None,,,,,ar,002,2019_Sep_28_1059,StressSession,3.2.3,59.97558994452047,
,,,,violett,black,schwarz,violett,left,,,,,0,57,57,182,,,,,,,,,left,0.752585900016129,788.6590488000074,None,,,,,ar,002,2019_Sep_28_1059,StressSession,3.2.3,59.97558994452047,
,,,,schwarz,magenta,schwarz,magenta,right,,,,,0,58,58,103,,,,,,,,,right,0.7655240999301895,789.958156599896,None,,,,,ar,002,2019_Sep_28_1059,StressSession,3.2.3,59.97558994452047,
,,,,weiß,black,weiß,schwarz,right,,,,,0,59,59,90,,,,,,,,,right,0.9266866999678314,791.2614686999004,None,,,,,ar,002,2019_Sep_28_1059,StressSession,3.2.3,59.97558994452047,
,,,,magenta,purple,violett,magenta,left,,,,,0,60,60,143,,,,,,,,,left,0.8318354000803083,792.7317374999402,None,,,,,ar,002,2019_Sep_28_1059,StressSession,3.2.3,59.97558994452047,
,,,,gruen,brown,braun,gruen,left,,,,,0,61,61,135,,,,,,,,,left,1.0009290999732912,794.1147376999725,None,,,,,ar,002,2019_Sep_28_1059,StressSession,3.2.3,59.97558994452047,
,,,,rot,cyan,rot,cyan,right,,,,,0,62,62,3,,,,,,,,,right,0.8666963999858126,795.6568133999826,None,,,,,ar,002,2019_Sep_28_1059,StressSession,3.2.3,59.97558994452047,
,,,,cyan,purple,violett,cyan,left,,,,,0,63,63,152,,,,,,,,,left,0.8767729999963194,797.054786899942,None,,,,,ar,002,2019_Sep_28_1059,StressSession,3.2.3,59.97558994452047,
,,,,gelb,blue,blau,gelb,left,,,,,0,64,64,166,,,,,,,,,left,0.8851978000020608,798.4785378999077,None,,,,,ar,002,2019_Sep_28_1059,StressSession,3.2.3,59.97558994452047,
,,,,braun,black,braun,schwarz,right,,,,,0,65,65,81,,,,,,,,,right,0.7881134999915957,799.9116926999995,None,,,,,ar,002,2019_Sep_28_1059,StressSession,3.2.3,59.97558994452047,
,,,,braun,cyan,cyan,braun,left,,,,,0,66,66,196,,,,,,,,,left,0.8716648999834433,801.2360478999326,None,,,,,ar,002,2019_Sep_28_1059,StressSession,3.2.3,59.97558994452047,
,,,,braun,magenta,braun,magenta,right,,,,,0,67,67,85,,,,,,,,,right,0.9224323000526056,802.6493371999823,None,,,,,ar,002,2019_Sep_28_1059,StressSession,3.2.3,59.97558994452047,
,,,,weiß,blue,blau,weiß,left,,,,,0,68,68,202,,,,,,,,,left,0.7632029999513179,804.1055523999967,None,,,,,ar,002,2019_Sep_28_1059,StressSession,3.2.3,59.97558994452047,
,,,,magenta,brown,magenta,braun,right,,,,,0,69,69,34,,,,,,,,,left,1.1446954999119043,805.4110757999588,None,,,,,ar,002,2019_Sep_28_1059,StressSession,3.2.3,59.97558994452047,
,,,,gelb,red,gelb,rot,right,,,,,0,70,70,55,,,,,,,,,right,1.4164593000896275,807.0912069999613,None,,,,,ar,002,2019_Sep_28_1059,StressSession,3.2.3,59.97558994452047,
,,,,orange,yellow,orange,gelb,right,,,,,0,71,71,69,,,,,,,,,right,1.3576988000422716,809.0538595999824,None,,,,,ar,002,2019_Sep_28_1059,StressSession,3.2.3,59.97558994452047,
,,,,cyan,white,cyan,weiß,right,,,,,0,72,72,44,,,,,,,,,right,0.9201765999896452,810.9553728000028,None,,,,,ar,002,2019_Sep_28_1059,StressSession,3.2.3,59.97558994452047,
,,,,braun,magenta,magenta,braun,left,,,,,0,73,73,195,,,,,,,,,left,1.2106979000382125,812.4250993999885,None,,,,,ar,002,2019_Sep_28_1059,StressSession,3.2.3,59.97558994452047,
,,,,gelb,orange,gelb,orange,right,,,,,0,74,74,50,,,,,,,,,right,0.8465971000259742,814.1729090999579,None,,,,,ar,002,2019_Sep_28_1059,StressSession,3.2.3,59.97558994452047,
,,,,gelb,cyan,gelb,cyan,right,,,,,0,75,75,59,,,,,,,,,right,0.7574982000514865,815.542849099962,None,,,,,ar,002,2019_Sep_28_1059,StressSession,3.2.3,59.97558994452047,
,,,,braun,green,braun,gruen,right,,,,,0,76,76,84,,,,,,,,,right,0.9578068000264466,816.8380180000095,None,,,,,ar,002,2019_Sep_28_1059,StressSession,3.2.3,59.97558994452047,
,,,,gruen,orange,orange,gruen,left,,,,,0,77,77,133,,,,,,,,,left,1.347390699898824,818.3362033999292,None,,,,,ar,002,2019_Sep_28_1059,StressSession,3.2.3,59.97558994452047,
,,,,weiß,yellow,gelb,weiß,left,,,,,0,78,78,206,,,,,,,,,left,1.242297500022687,820.217518899939,None,,,,,ar,002,2019_Sep_28_1059,StressSession,3.2.3,59.97558994452047,
,,,,violett,cyan,violett,cyan,right,,,,,0,79,79,77,,,,,,,,,right,0.8139312999555841,822.0058307999279,None,,,,,ar,002,2019_Sep_28_1059,StressSession,3.2.3,59.97558994452047,
,,,,gruen,red,rot,gruen,left,,,,,0,80,80,138,,,,,,,,,left,0.7115543000400066,823.3719379999675,None,,,,,ar,002,2019_Sep_28_1059,StressSession,3.2.3,59.97558994452047,
,,,,weiß,magenta,weiß,magenta,right,,,,,0,81,81,94,,,,,,,,,right,0.83272239996586,824.6189946999075,None,,,,,ar,002,2019_Sep_28_1059,StressSession,3.2.3,59.97558994452047,
,,,,blau,purple,blau,violett,right,,,,,0,82,82,15,,,,,,,,,right,1.1802036999724805,826.0001340999734,None,,,,,ar,002,2019_Sep_28_1059,StressSession,3.2.3,59.97558994452047,
,,,,cyan,brown,cyan,braun,right,,,,,0,83,83,43,,,,,,,,,right,1.261553999967873,827.7187742999522,None,,,,,ar,002,2019_Sep_28_1059,StressSession,3.2.3,59.97558994452047,
,,,,rot,black,rot,schwarz,right,,,,,0,84,84,9,,,,,,,,,right,1.6528875000076368,829.5186803999823,None,,,,,ar,002,2019_Sep_28_1059,StressSession,3.2.3,59.97558994452047,
,,,,gelb,purple,violett,gelb,left,,,,,0,85,85,161,,,,,,,,,left,1.1184182999422774,831.7170100999065,None,,,,,ar,002,2019_Sep_28_1059,StressSession,3.2.3,59.97558994452047,
,,,,rot,orange,orange,rot,left,,,,,0,86,86,115,,,,,,,,,left,0.7980270000407472,833.3817737000063,None,,,,,ar,002,2019_Sep_28_1059,StressSession,3.2.3,59.97558994452047,
,,,,violett,magenta,magenta,violett,left,,,,,0,87,87,186,,,,,,,,,left,1.7285678000189364,834.7228346999036,None,,,,,ar,002,2019_Sep_28_1059,StressSession,3.2.3,59.97558994452047,
,,,,violett,cyan,cyan,violett,left,,,,,0,88,88,187,,,,,,,,,left,1.2140604000305757,836.9814472999424,None,,,,,ar,002,2019_Sep_28_1059,StressSession,3.2.3,59.97558994452047,
,,,,orange,cyan,cyan,orange,left,,,,,0,89,89,178,,,,,,,,,left,1.136990400031209,838.730775199947,None,,,,,ar,002,2019_Sep_28_1059,StressSession,3.2.3,59.97558994452047,
,,,,rot,green,gruen,rot,left,,,,,0,90,90,111,,,,,,,,,left,0.7534999999916181,840.4181953999214,None,,,,,ar,002,2019_Sep_28_1059,StressSession,3.2.3,59.97558994452047,
,,,,violett,yellow,violett,gelb,right,,,,,0,91,91,78,,,,,,,,,right,0.928743000025861,841.7154902999755,None,,,,,ar,002,2019_Sep_28_1059,StressSession,3.2.3,59.97558994452047,
,,,,cyan,purple,cyan,violett,right,,,,,0,92,92,42,,,,,,,,,right,1.2689184000482783,843.1825772000011,None,,,,,ar,002,2019_Sep_28_1059,StressSession,3.2.3,59.97558994452047,
,,,,magenta,yellow,gelb,magenta,left,,,,,0,93,93,141,,,,,,,,,left,1.9059527000645176,845.0028438000008,None,,,,,ar,002,2019_Sep_28_1059,StressSession,3.2.3,59.97558994452047,
,,,,gruen,red,gruen,rot,right,,,,,0,94,94,28,,,,,,,,,right,0.6889567000325769,847.4505673999665,None,,,,,ar,002,2019_Sep_28_1059,StressSession,3.2.3,59.97558994452047,
,,,,orange,magenta,magenta,orange,left,,,,,0,95,95,177,,,,,,,,,left,0.9682627000147477,848.7238102999981,None,,,,,ar,002,2019_Sep_28_1059,StressSession,3.2.3,59.97558994452047,
,,,,magenta,cyan,magenta,cyan,right,,,,,0,96,96,30,,,,,,,,,right,0.7764134000753984,850.2273507999489,None,,,,,ar,002,2019_Sep_28_1059,StressSession,3.2.3,59.97558994452047,
,,,,schwarz,cyan,cyan,schwarz,left,,,,,0,97,97,214,,,,,,,,,left,0.9972891000797972,851.5501402999507,None,,,,,ar,002,2019_Sep_28_1059,StressSession,3.2.3,59.97558994452047,
,,,,blau,brown,blau,braun,right,,,,,0,98,98,16,,,,,,,,,right,1.2587949000298977,853.0887529999018,None,,,,,ar,002,2019_Sep_28_1059,StressSession,3.2.3,59.97558994452047,
,,,,schwarz,orange,orange,schwarz,left,,,,,0,99,99,216,,,,,,,,,left,1.1913944999687374,854.9000809999416,None,,,,,ar,002,2019_Sep_28_1059,StressSession,3.2.3,59.97558994452047,
,,,,cyan,yellow,cyan,gelb,right,,,,,0,100,100,40,,,,,,,,,right,0.7281107000308111,856.6282367999665,None,,,,,ar,002,2019_Sep_28_1059,StressSession,3.2.3,59.97558994452047,
,,,,violett,white,weiß,violett,left,,,,,0,101,101,181,,,,,,,,,left,0.8435910999542102,857.8965905999066,None,,,,,ar,002,2019_Sep_28_1059,StressSession,3.2.3,59.97558994452047,
,,,,gruen,black,schwarz,gruen,left,,,,,0,102,102,137,,,,,,,,,left,0.8723603999242187,859.2838520999067,None,,,,,ar,002,2019_Sep_28_1059,StressSession,3.2.3,59.97558994452047,
,,,,gelb,cyan,cyan,gelb,left,,,,,0,103,103,169,,,,,,,,,left,0.8200328000821173,860.695556199993,None,,,,,ar,002,2019_Sep_28_1059,StressSession,3.2.3,59.97558994452047,
,,,,cyan,yellow,gelb,cyan,left,,,,,0,104,104,150,,,,,,,,,left,0.8512762000318617,862.0483117999975,None,,,,,ar,002,2019_Sep_28_1059,StressSession,3.2.3,59.97558994452047,
,,,,gruen,black,gruen,schwarz,right,,,,,0,105,105,27,,,,,,,,,right,0.7418421000475064,863.4377077999525,None,,,,,ar,002,2019_Sep_28_1059,StressSession,3.2.3,59.97558994452047,
,,,,weiß,purple,weiß,violett,right,,,,,0,106,106,98,,,,,,,,,right,0.7938372999196872,864.7463035999099,None,,,,,ar,002,2019_Sep_28_1059,StressSession,3.2.3,59.97558994452047,
,,,,braun,cyan,braun,cyan,right,,,,,0,107,107,86,,,,,,,,,right,0.8886936999624595,866.0748691000044,None,,,,,ar,002,2019_Sep_28_1059,StressSession,3.2.3,59.97558994452047,
,,,,violett,brown,violett,braun,right,,,,,0,108,108,70,,,,,,,,,right,1.1221800000639632,867.505218999926,None,,,,,ar,002,2019_Sep_28_1059,StressSession,3.2.3,59.97558994452047,
,,,,orange,brown,braun,orange,left,,,,,0,109,109,171,,,,,,,,,left,1.5094459999818355,869.1660363998963,None,,,,,ar,002,2019_Sep_28_1059,StressSession,3.2.3,59.97558994452047,
,,,,blau,white,weiß,blau,left,,,,,0,110,110,127,,,,,,,,,left,0.831208199961111,871.2212482999312,None,,,,,ar,002,2019_Sep_28_1059,StressSession,3.2.3,59.97558994452047,
,,,,braun,red,braun,rot,right,,,,,0,111,111,82,,,,,,,,,right,0.965317799942568,872.5903116998961,None,,,,,ar,002,2019_Sep_28_1059,StressSession,3.2.3,59.97558994452047,
,,,,weiß,purple,violett,weiß,left,,,,,0,112,112,208,,,,,,,,,left,1.3602663000347093,874.092031899956,None,,,,,ar,002,2019_Sep_28_1059,StressSession,3.2.3,59.97558994452047,
,,,,gelb,green,gruen,gelb,left,,,,,0,113,113,167,,,,,,,,,left,0.8216696999734268,875.9899159999331,None,,,,,ar,002,2019_Sep_28_1059,StressSession,3.2.3,59.97558994452047,
,,,,cyan,black,cyan,schwarz,right,,,,,0,114,114,45,,,,,,,,,right,0.9156331999693066,877.3597791999346,None,,,,,ar,002,2019_Sep_28_1059,StressSession,3.2.3,59.97558994452047,
,,,,magenta,cyan,cyan,magenta,left,,,,,0,115,115,140,,,,,,,,,left,1.0050520999357104,878.8227017999161,None,,,,,ar,002,2019_Sep_28_1059,StressSession,3.2.3,59.97558994452047,
,,,,schwarz,magenta,magenta,schwarz,left,,,,,0,116,116,213,,,,,,,,,left,0.9325103000737727,880.3751335999696,None,,,,,ar,002,2019_Sep_28_1059,StressSession,3.2.3,59.97558994452047,
,,,,magenta,white,magenta,weiß,right,,,,,0,117,117,35,,,,,,,,,right,0.7185467999661341,881.8532703999663,None,,,,,ar,002,2019_Sep_28_1059,StressSession,3.2.3,59.97558994452047,
,,,,weiß,brown,weiß,braun,right,,,,,0,118,118,99,,,,,,,,,right,1.133465199964121,883.1101517999778,None,,,,,ar,002,2019_Sep_28_1059,StressSession,3.2.3,59.97558994452047,
,,,,rot,green,rot,gruen,right,,,,,0,119,119,1,,,,,,,,,right,0.7833678000606596,884.788168799947,None,,,,,ar,002,2019_Sep_28_1059,StressSession,3.2.3,59.97558994452047,
,,,,weiß,yellow,weiß,gelb,right,,,,,0,120,120,96,,,,,,,,,right,0.8249630000209436,886.1234437999083,None,,,,,ar,002,2019_Sep_28_1059,StressSession,3.2.3,59.97558994452047,
,,,,rot,white,weiß,rot,left,,,,,0,121,121,118,,,,,,,,,left,1.01922600006219,887.4810530999675,None,,,,,ar,002,2019_Sep_28_1059,StressSession,3.2.3,59.97558994452047,
,,,,schwarz,brown,schwarz,braun,right,,,,,0,122,122,108,,,,,,,,,right,2.260585999931209,889.0390635000076,None,,,,,ar,002,2019_Sep_28_1059,StressSession,3.2.3,59.97558994452047,
,,,,weiß,orange,weiß,orange,right,,,,,0,123,123,97,,,,,,,,,right,0.7485477000009269,891.8391099999426,None,,,,,ar,002,2019_Sep_28_1059,StressSession,3.2.3,59.97558994452047,
,,,,rot,brown,rot,braun,right,,,,,0,124,124,7,,,,,,,,,left,0.9784062999533489,893.129417899996,None,,,,,ar,002,2019_Sep_28_1059,StressSession,3.2.3,59.97558994452047,
,,,,gelb,black,gelb,schwarz,right,,,,,0,125,125,54,,,,,,,,,right,0.9816611000569537,894.6540977999102,None,,,,,ar,002,2019_Sep_28_1059,StressSession,3.2.3,59.97558994452047,
,,,,orange,purple,orange,violett,right,,,,,0,126,126,60,,,,,,,,,right,1.1011677000205964,896.1825600999873,None,,,,,ar,002,2019_Sep_28_1059,StressSession,3.2.3,59.97558994452047,
,,,,gelb,orange,orange,gelb,left,,,,,0,127,127,160,,,,,,,,,left,0.7956702000228688,897.8319162999978,None,,,,,ar,002,2019_Sep_28_1059,StressSession,3.2.3,59.97558994452047,
,,,,blau,magenta,magenta,blau,left,,,,,0,128,128,121,,,,,,,,,left,0.7641850999789312,899.1676758999238,None,,,,,ar,002,2019_Sep_28_1059,StressSession,3.2.3,59.97558994452047,
,,,,rot,orange,rot,orange,right,,,,,0,129,129,5,,,,,,,,,right,1.064286700100638,900.4674132999498,None,,,,,ar,002,2019_Sep_28_1059,StressSession,3.2.3,59.97558994452047,
,,,,magenta,black,schwarz,magenta,left,,,,,0,130,130,146,,,,,,,,,left,0.7952012999448925,902.0724592999322,None,,,,,ar,002,2019_Sep_28_1059,StressSession,3.2.3,59.97558994452047,
,,,,cyan,red,cyan,rot,right,,,,,0,131,131,46,,,,,,,,,right,0.9071305999532342,903.4165852000006,None,,,,,ar,002,2019_Sep_28_1059,StressSession,3.2.3,59.97558994452047,
,,,,gruen,cyan,gruen,cyan,right,,,,,0,132,132,21,,,,,,,,,right,0.8064119000919163,904.8691210999386,None,,,,,ar,002,2019_Sep_28_1059,StressSession,3.2.3,59.97558994452047,
,,,,magenta,green,gruen,magenta,left,,,,,0,133,133,149,,,,,,,,,left,0.7982518000062555,906.2139620999806,None,,,,,ar,002,2019_Sep_28_1059,StressSession,3.2.3,59.97558994452047,
,,,,violett,blue,violett,blau,right,,,,,0,134,134,74,,,,,,,,,right,0.7756791000720114,907.5480633999687,None,,,,,ar,002,2019_Sep_28_1059,StressSession,3.2.3,59.97558994452047,
,,,,rot,brown,braun,rot,left,,,,,0,135,135,117,,,,,,,,,left,0.9438300000037998,908.8679421999259,None,,,,,ar,002,2019_Sep_28_1059,StressSession,3.2.3,59.97558994452047,
,,,,rot,magenta,magenta,rot,left,,,,,0,136,136,112,,,,,,,,,left,1.7872932000318542,910.3364779999247,None,,,,,ar,002,2019_Sep_28_1059,StressSession,3.2.3,59.97558994452047,
,,,,violett,black,violett,schwarz,right,,,,,0,137,137,72,,,,,,,,,right,0.7509331000037491,912.6688523999183,None,,,,,ar,002,2019_Sep_28_1059,StressSession,3.2.3,59.97558994452047,
,,,,braun,orange,orange,braun,left,,,,,0,138,138,198,,,,,,,,,left,0.6916972000617534,913.9685970999999,None,,,,,ar,002,2019_Sep_28_1059,StressSession,3.2.3,59.97558994452047,
,,,,violett,red,rot,violett,left,,,,,0,139,139,183,,,,,,,,,left,0.9145065000047907,915.2010501999175,None,,,,,ar,002,2019_Sep_28_1059,StressSession,3.2.3,59.97558994452047,
,,,,gelb,black,schwarz,gelb,left,,,,,0,140,140,164,,,,,,,,,left,1.2509855000535026,916.6646337999264,None,,,,,ar,002,2019_Sep_28_1059,StressSession,3.2.3,59.97558994452047,
,,,,gelb,magenta,gelb,magenta,right,,,,,0,141,141,58,,,,,,,,,right,1.0315019999397919,918.4609363999916,None,,,,,ar,002,2019_Sep_28_1059,StressSession,3.2.3,59.97558994452047,
,,,,gelb,red,rot,gelb,left,,,,,0,142,142,165,,,,,,,,,left,1.5721030000131577,920.0237850999692,None,,,,,ar,002,2019_Sep_28_1059,StressSession,3.2.3,59.97558994452047,
,,,,gruen,yellow,gelb,gruen,left,,,,,0,143,143,132,,,,,,,,,left,1.5994983999989927,922.1479828999145,None,,,,,ar,002,2019_Sep_28_1059,StressSession,3.2.3,59.97558994452047,
,,,,schwarz,orange,schwarz,orange,right,,,,,0,144,144,106,,,,,,,,,right,0.8632921000244096,924.3002767999424,None,,,,,ar,002,2019_Sep_28_1059,StressSession,3.2.3,59.97558994452047,
,,,,schwarz,cyan,schwarz,cyan,right,,,,,0,145,145,104,,,,,,,,,right,0.7065172999864444,925.697278299951,None,,,,,ar,002,2019_Sep_28_1059,StressSession,3.2.3,59.97558994452047,
,,,,gelb,blue,gelb,blau,right,,,,,0,146,146,56,,,,,,,,,right,0.7646119000855833,926.9430161999771,None,,,,,ar,002,2019_Sep_28_1059,StressSession,3.2.3,59.97558994452047,
,,,,braun,blue,braun,blau,right,,,,,0,147,147,83,,,,,,,,,right,1.3110849999357015,928.2291596999858,None,,,,,ar,002,2019_Sep_28_1059,StressSession,3.2.3,59.97558994452047,
,,,,blau,green,gruen,blau,left,,,,,0,148,148,120,,,,,,,,,left,0.7311208999017254,930.0724872999126,None,,,,,ar,002,2019_Sep_28_1059,StressSession,3.2.3,59.97558994452047,
,,,,blau,purple,violett,blau,left,,,,,0,149,149,125,,,,,,,,,left,1.1336851000087336,931.3338509999448,None,,,,,ar,002,2019_Sep_28_1059,StressSession,3.2.3,59.97558994452047,
,,,,gelb,brown,gelb,braun,right,,,,,0,150,150,52,,,,,,,,,right,1.1425509999971837,933.0050631999038,None,,,,,ar,002,2019_Sep_28_1059,StressSession,3.2.3,59.97558994452047,
,,,,schwarz,blue,blau,schwarz,left,,,,,0,151,151,211,,,,,,,,,left,1.3183069999795407,934.6932177999988,None,,,,,ar,002,2019_Sep_28_1059,StressSession,3.2.3,59.97558994452047,
,,,,weiß,black,schwarz,weiß,left,,,,,0,152,152,200,,,,,,,,,left,1.1681549999630079,936.5636645999039,None,,,,,ar,002,2019_Sep_28_1059,StressSession,3.2.3,59.97558994452047,
,,,,cyan,blue,blau,cyan,left,,,,,0,153,153,157,,,,,,,,,left,1.0963543999241665,938.2752912999131,None,,,,,ar,002,2019_Sep_28_1059,StressSession,3.2.3,59.97558994452047,
,,,,cyan,red,rot,cyan,left,,,,,0,154,154,156,,,,,,,,,left,0.8707731999456882,939.8929625999881,None,,,,,ar,002,2019_Sep_28_1059,StressSession,3.2.3,59.97558994452047,
,,,,weiß,cyan,cyan,weiß,left,,,,,0,155,155,205,,,,,,,,,left,1.3398579999338835,941.3126801999751,None,,,,,ar,002,2019_Sep_28_1059,StressSession,3.2.3,59.97558994452047,
,,,,blau,black,blau,schwarz,right,,,,,0,156,156,18,,,,,,,,,right,1.6770897000096738,943.1913725999184,None,,,,,ar,002,2019_Sep_28_1059,StressSession,3.2.3,59.97558994452047,
,,,,braun,blue,blau,braun,left,,,,,0,157,157,193,,,,,,,,,left,0.8233039999613538,945.4044764999999,None,,,,,ar,002,2019_Sep_28_1059,StressSession,3.2.3,59.97558994452047,
,,,,orange,brown,orange,braun,right,,,,,0,158,158,61,,,,,,,,,right,1.033886699937284,946.7699252999155,None,,,,,ar,002,2019_Sep_28_1059,StressSession,3.2.3,59.97558994452047,
,,,,cyan,green,gruen,cyan,left,,,,,0,159,159,158,,,,,,,,,left,0.7363645998993888,948.3393529999303,None,,,,,ar,002,2019_Sep_28_1059,StressSession,3.2.3,59.97558994452047,
,,,,cyan,blue,cyan,blau,right,,,,,0,160,160,47,,,,,,,,,right,0.6535240999655798,949.614714999916,None,,,,,ar,002,2019_Sep_28_1059,StressSession,3.2.3,59.97558994452047,
,,,,rot,yellow,gelb,rot,left,,,,,0,161,161,114,,,,,,,,,left,1.6176110999658704,950.801965199993,None,,,,,ar,002,2019_Sep_28_1059,StressSession,3.2.3,59.97558994452047,
,,,,rot,magenta,rot,magenta,right,,,,,0,162,162,2,,,,,,,,,right,1.1228366999421269,952.9528191999998,None,,,,,ar,002,2019_Sep_28_1059,StressSession,3.2.3,59.97558994452047,
,,,,schwarz,purple,schwarz,violett,right,,,,,0,163,163,107,,,,,,,,,right,0.9007703999523073,954.6229243999114,None,,,,,ar,002,2019_Sep_28_1059,StressSession,3.2.3,59.97558994452047,
,,,,blau,orange,orange,blau,left,,,,,0,164,164,124,,,,,,,,,left,0.7073422999819741,956.0724337999709,None,,,,,ar,002,2019_Sep_28_1059,StressSession,3.2.3,59.97558994452047,
,,,,blau,yellow,gelb,blau,left,,,,,0,165,165,123,,,,,,,,,left,0.7595900000305846,957.3085604999214,None,,,,,ar,002,2019_Sep_28_1059,StressSession,3.2.3,59.97558994452047,
,,,,violett,brown,braun,violett,left,,,,,0,166,166,180,,,,,,,,,left,1.0439920999342576,958.6076985999243,None,,,,,ar,002,2019_Sep_28_1059,StressSession,3.2.3,59.97558994452047,
,,,,orange,green,gruen,orange,left,,,,,0,167,167,176,,,,,,,,,left,0.7928016000660136,960.186739699915,None,,,,,ar,002,2019_Sep_28_1059,StressSession,3.2.3,59.97558994452047,
,,,,orange,blue,blau,orange,left,,,,,0,168,168,175,,,,,,,,,left,0.794680199935101,961.5048658999149,None,,,,,ar,002,2019_Sep_28_1059,StressSession,3.2.3,59.97558994452047,
,,,,schwarz,white,schwarz,weiß,right,,,,,0,169,169,109,,,,,,,,,right,1.0642682999605313,962.8357971999794,None,,,,,ar,002,2019_Sep_28_1059,StressSession,3.2.3,59.97558994452047,
,,,,gelb,magenta,magenta,gelb,left,,,,,0,170,170,168,,,,,,,,,left,1.1411931000184268,964.4393113999395,None,,,,,ar,002,2019_Sep_28_1059,StressSession,3.2.3,59.97558994452047,
,,,,braun,purple,braun,violett,right,,,,,0,171,171,89,,,,,,,,,right,1.3027189000276849,966.1089383999351,None,,,,,ar,002,2019_Sep_28_1059,StressSession,3.2.3,59.97558994452047,
,,,,orange,cyan,orange,cyan,right,,,,,0,172,172,68,,,,,,,,,right,1.168351300060749,967.9554863999365,None,,,,,ar,002,2019_Sep_28_1059,StressSession,3.2.3,59.97558994452047,
,,,,braun,yellow,braun,gelb,right,,,,,0,173,173,87,,,,,,,,,right,1.163076600059867,969.6654851000058,None,,,,,ar,002,2019_Sep_28_1059,StressSession,3.2.3,59.97558994452047,
,,,,rot,black,schwarz,rot,left,,,,,0,174,174,119,,,,,,,,,left,0.67765500000678,971.3658799999394,None,,,,,ar,002,2019_Sep_28_1059,StressSession,3.2.3,59.97558994452047,
,,,,weiß,red,rot,weiß,left,,,,,0,175,175,201,,,,,,,,,left,0.6370411000680178,972.5824803999858,None,,,,,ar,002,2019_Sep_28_1059,StressSession,3.2.3,59.97558994452047,
,,,,magenta,red,rot,magenta,left,,,,,0,176,176,147,,,,,,,,,left,0.7033540999982506,973.7643317999318,None,,,,,ar,002,2019_Sep_28_1059,StressSession,3.2.3,59.97558994452047,
,,,,braun,black,schwarz,braun,left,,,,,0,177,177,191,,,,,,,,,left,0.7364625999471173,975.0194026000099,None,,,,,ar,002,2019_Sep_28_1059,StressSession,3.2.3,59.97558994452047,
,,,,gruen,blue,gruen,blau,right,,,,,0,178,178,29,,,,,,,,,right,1.1310998999979347,976.3046667999588,None,,,,,ar,002,2019_Sep_28_1059,StressSession,3.2.3,59.97558994452047,
,,,,gruen,purple,violett,gruen,left,,,,,0,179,179,134,,,,,,,,,left,0.841731799999252,977.977942999918,None,,,,,ar,002,2019_Sep_28_1059,StressSession,3.2.3,59.97558994452047,
,,,,braun,white,weiß,braun,left,,,,,0,180,180,190,,,,,,,,,left,0.7417819999391213,979.3660767999245,None,,,,,ar,002,2019_Sep_28_1059,StressSession,3.2.3,59.97558994452047,
,,,,cyan,magenta,cyan,magenta,right,,,,,0,181,181,49,,,,,,,,,right,1.009887299966067,980.6506542999996,None,,,,,ar,002,2019_Sep_28_1059,StressSession,3.2.3,59.97558994452047,
,,,,rot,purple,violett,rot,left,,,,,0,182,182,116,,,,,,,,,left,1.310515800025314,982.1890078999568,None,,,,,ar,002,2019_Sep_28_1059,StressSession,3.2.3,59.97558994452047,
,,,,blau,red,rot,blau,left,,,,,0,183,183,129,,,,,,,,,left,0.6284665000857785,984.0321913999505,None,,,,,ar,002,2019_Sep_28_1059,StressSession,3.2.3,59.97558994452047,
,,,,blau,yellow,blau,gelb,right,,,,,0,184,184,13,,,,,,,,,right,0.8152122999308631,985.18873970001,None,,,,,ar,002,2019_Sep_28_1059,StressSession,3.2.3,59.97558994452047,
,,,,gruen,blue,blau,gruen,left,,,,,0,185,185,139,,,,,,,,,left,0.6729819999309257,986.5468641999178,None,,,,,ar,002,2019_Sep_28_1059,StressSession,3.2.3,59.97558994452047,
,,,,gruen,yellow,gruen,gelb,right,,,,,0,186,186,22,,,,,,,,,right,0.741932199918665,987.7577914999565,None,,,,,ar,002,2019_Sep_28_1059,StressSession,3.2.3,59.97558994452047,
,,,,magenta,purple,magenta,violett,right,,,,,0,187,187,33,,,,,,,,,right,1.113099499954842,989.0503780998988,None,,,,,ar,002,2019_Sep_28_1059,StressSession,3.2.3,59.97558994452047,
,,,,weiß,green,weiß,gruen,right,,,,,0,188,188,93,,,,,,,,,right,2.131130599998869,990.7124122999376,None,,,,,ar,002,2019_Sep_28_1059,StressSession,3.2.3,59.97558994452047,
,,,,blau,red,blau,rot,right,,,,,0,189,189,19,,,,,,,,,right,0.7574803999159485,993.3740888999309,None,,,,,ar,002,2019_Sep_28_1059,StressSession,3.2.3,59.97558994452047,
,,,,braun,white,braun,weiß,right,,,,,0,190,190,80,,,,,,,,,right,0.7322979000164196,994.6792762998957,None,,,,,ar,002,2019_Sep_28_1059,StressSession,3.2.3,59.97558994452047,
,,,,rot,purple,rot,violett,right,,,,,0,191,191,6,,,,,,,,,right,1.5213653000537306,995.9623717999784,None,,,,,ar,002,2019_Sep_28_1059,StressSession,3.2.3,59.97558994452047,
,,,,gruen,white,gruen,weiß,right,,,,,0,192,192,26,,,,,,,,,right,0.9705407000146806,998.0329312999966,None,,,,,ar,002,2019_Sep_28_1059,StressSession,3.2.3,59.97558994452047,
,,,,orange,white,weiß,orange,left,,,,,0,193,193,172,,,,,,,,,left,1.201617700047791,999.5547351998976,None,,,,,ar,002,2019_Sep_28_1059,StressSession,3.2.3,59.97558994452047,
,,,,orange,yellow,gelb,orange,left,,,,,0,194,194,179,,,,,,,,,left,0.6650892000179738,1001.2746938999044,None,,,,,ar,002,2019_Sep_28_1059,StressSession,3.2.3,59.97558994452047,
,,,,blau,brown,braun,blau,left,,,,,0,195,195,126,,,,,,,,,left,1.3164813000475988,1002.4719137999928,None,,,,,ar,002,2019_Sep_28_1059,StressSession,3.2.3,59.97558994452047,
,,,,blau,cyan,cyan,blau,left,,,,,0,196,196,122,,,,,,,,,left,0.7637803999241441,1004.3119733999483,None,,,,,ar,002,2019_Sep_28_1059,StressSession,3.2.3,59.97558994452047,
,,,,cyan,magenta,magenta,cyan,left,,,,,0,197,197,159,,,,,,,,,left,1.529986200039275,1005.6259414999513,None,,,,,ar,002,2019_Sep_28_1059,StressSession,3.2.3,59.97558994452047,
,,,,orange,magenta,orange,magenta,right,,,,,0,198,198,67,,,,,,,,,right,2.6200362000381574,1007.6960252999561,None,,,,,ar,002,2019_Sep_28_1059,StressSession,3.2.3,59.97558994452047,
,,,,violett,red,violett,rot,right,,,,,0,199,199,73,,,,,,,,,right,2.2084880999755114,1010.8600700999377,None,,,,,ar,002,2019_Sep_28_1059,StressSession,3.2.3,59.97558994452047,
,,,,braun,orange,braun,orange,right,,,,,0,200,200,88,,,,,,,,,right,0.7188879000023007,1013.6129261999158,None,,,,,ar,002,2019_Sep_28_1059,StressSession,3.2.3,59.97558994452047,
,,,,magenta,blue,magenta,blau,right,,,,,0,201,201,38,,,,,,,,,right,0.7003353999461979,1014.8795304999221,None,,,,,ar,002,2019_Sep_28_1059,StressSession,3.2.3,59.97558994452047,
,,,,orange,black,schwarz,orange,left,,,,,0,202,202,173,,,,,,,,,left,1.0375383999198675,1016.1262415999081,None,,,,,ar,002,2019_Sep_28_1059,StressSession,3.2.3,59.97558994452047,
,,,,orange,white,orange,weiß,right,,,,,0,203,203,62,,,,,,,,,right,1.2364710998954251,1017.703318099957,None,,,,,ar,002,2019_Sep_28_1059,StressSession,3.2.3,59.97558994452047,
,,,,magenta,white,weiß,magenta,left,,,,,0,204,204,145,,,,,,,,,left,1.5182590000331402,1019.493555999943,None,,,,,ar,002,2019_Sep_28_1059,StressSession,3.2.3,59.97558994452047,
,,,,gruen,white,weiß,gruen,left,,,,,0,205,205,136,,,,,,,,,left,0.7467811999376863,1021.5536827999167,None,,,,,ar,002,2019_Sep_28_1059,StressSession,3.2.3,59.97558994452047,
,,,,rot,cyan,cyan,rot,left,,,,,0,206,206,113,,,,,,,,,left,0.6853740999940783,1022.8381442999234,None,,,,,ar,002,2019_Sep_28_1059,StressSession,3.2.3,59.97558994452047,
,,,,gruen,magenta,magenta,gruen,left,,,,,0,207,207,130,,,,,,,,,left,0.8014065000461414,1024.0744367999723,None,,,,,ar,002,2019_Sep_28_1059,StressSession,3.2.3,59.97558994452047,
,,,,weiß,brown,braun,weiß,left,,,,,0,208,208,209,,,,,,,,,left,0.8766833000117913,1025.4238136999775,None,,,,,ar,002,2019_Sep_28_1059,StressSession,3.2.3,59.97558994452047,
,,,,blau,cyan,blau,cyan,right,,,,,0,209,209,12,,,,,,,,,right,0.6891128000570461,1026.8345827999292,None,,,,,ar,002,2019_Sep_28_1059,StressSession,3.2.3,59.97558994452047,
,,,,magenta,orange,orange,magenta,left,,,,,0,210,210,142,,,,,,,,,left,1.6092707000207156,1028.0744727998972,None,,,,,ar,002,2019_Sep_28_1059,StressSession,3.2.3,59.97558994452047,
,,,,magenta,blue,blau,magenta,left,,,,,0,211,211,148,,,,,,,,,left,1.1444852000568062,1030.2039532999042,None,,,,,ar,002,2019_Sep_28_1059,StressSession,3.2.3,59.97558994452047,
,,,,violett,blue,blau,violett,left,,,,,0,212,212,184,,,,,,,,,left,0.5359877999871969,1031.8837957999203,None,,,,,ar,002,2019_Sep_28_1059,StressSession,3.2.3,59.97558994452047,
,,,,schwarz,blue,schwarz,blau,right,,,,,0,213,213,101,,,,,,,,,left,0.4001110000535846,1032.9713907999685,None,,,,,ar,002,2019_Sep_28_1059,StressSession,3.2.3,59.97558994452047,
,,,,blau,magenta,blau,magenta,right,,,,,0,214,214,11,,,,,,,,,right,1.3665060000494123,1033.9171420999337,None,,,,,ar,002,2019_Sep_28_1059,StressSession,3.2.3,59.97558994452047,
,,,,gruen,brown,gruen,braun,right,,,,,0,215,215,25,,,,,,,,,right,1.6546018000226468,1035.8213326999685,None,,,,,ar,002,2019_Sep_28_1059,StressSession,3.2.3,59.97558994452047,
,,,,magenta,green,magenta,gruen,right,,,,,0,216,216,39,,,,,,,,,right,0.7741920999251306,1038.0295109999133,None,,,,,ar,002,2019_Sep_28_1059,StressSession,3.2.3,59.97558994452047,
,,,,braun,yellow,gelb,braun,left,,,,,0,217,217,197,,,,,,,,,left,0.844368000049144,1039.3519721999764,None,,,,,ar,002,2019_Sep_28_1059,StressSession,3.2.3,59.97558994452047,
,,,,schwarz,purple,violett,schwarz,left,,,,,0,218,218,217,,,,,,,,,left,1.1286583000328392,1040.73924419994,None,,,,,ar,002,2019_Sep_28_1059,StressSession,3.2.3,59.97558994452047,
,,,,blau,green,blau,gruen,right,,,,,0,219,219,10,,,,,,,,,right,1.2309150999644771,1042.4138023999985,None,,,,,ar,002,2019_Sep_28_1059,StressSession,3.2.3,59.97558994452047,
,,,,,,,,,,,,,,,,,,,,2,19.534,,,,,,,,2019-09-28_11:16:57,,,,ar,002,2019_Sep_28_1059,StressSession,3.2.3,59.97558994452047,
,,,,,,,,,,,,,,,,,,,,,,3,19.845,,,,,,,,,,ar,002,2019_Sep_28_1059,StressSession,3.2.3,59.97558994452047,
,,,,,,,,,,,,,,,,,,,,1,9.182,,,,,,,,,2019-09-28_11:18:39,2019-09-28_11:23:39,,ar,002,2019_Sep_28_1059,StressSession,3.2.3,59.97558994452047,
,,,,,,,,,,,,,,,,,,,,,,,,,,,,,,,,2019-09-28_11:23:51,,,,,,,
