Tick,Color,Tone,TimeDur,WordItem,WordColor,AnsLeft,AnsRight,AnsCorr,tick.thisRepN,tick.thisTrialN,tick.thisN,tick.thisIndex,stroop_trials.thisRepN,stroop_trials.thisTrialN,stroop_trials.thisN,stroop_trials.thisIndex,start_session_two,start_stress_one,end_stress_one,rating_evaluation_one.response,rating_evaluation_one.rt,rating_evaluation_two.response,rating_evaluation_two.rt,start_stress_two,key_resp_part_two_meas.keys,key_resp_part_two_meas.rt,key_resp_part_two_meas.started,key_resp_part_two_meas.stopped,end_stress_two,start_cooldown_measurement,end_cooldown_measurement,end_session_two,participant,session,date,expName,psychopyVersion,frameRate,
1,green,440,1.0,,,,,,0,0,0,0,,,,,2019-09-05_12:15:37,2019-09-05_12:16:48,,,,,,,,,,,,,,,md,002,2019_Sep_05_1215,StressSession,3.1.3,60.02253648093537,
2,green,440,1.0,,,,,,0,1,1,1,,,,,,,,,,,,,,,,,,,,,md,002,2019_Sep_05_1215,StressSession,3.1.3,60.02253648093537,
3,green,440,1.0,,,,,,0,2,2,2,,,,,,,,,,,,,,,,,,,,,md,002,2019_Sep_05_1215,StressSession,3.1.3,60.02253648093537,
4,green,440,1.0,,,,,,0,3,3,3,,,,,,,,,,,,,,,,,,,,,md,002,2019_Sep_05_1215,StressSession,3.1.3,60.02253648093537,
5,green,440,1.0,,,,,,0,4,4,4,,,,,,,,,,,,,,,,,,,,,md,002,2019_Sep_05_1215,StressSession,3.1.3,60.02253648093537,
6,green,440,1.0,,,,,,0,5,5,5,,,,,,,,,,,,,,,,,,,,,md,002,2019_Sep_05_1215,StressSession,3.1.3,60.02253648093537,
7,green,440,1.0,,,,,,0,6,6,6,,,,,,,,,,,,,,,,,,,,,md,002,2019_Sep_05_1215,StressSession,3.1.3,60.02253648093537,
8,green,440,1.0,,,,,,0,7,7,7,,,,,,,,,,,,,,,,,,,,,md,002,2019_Sep_05_1215,StressSession,3.1.3,60.02253648093537,
9,green,440,1.0,,,,,,0,8,8,8,,,,,,,,,,,,,,,,,,,,,md,002,2019_Sep_05_1215,StressSession,3.1.3,60.02253648093537,
10,green,440,1.0,,,,,,0,9,9,9,,,,,,,,,,,,,,,,,,,,,md,002,2019_Sep_05_1215,StressSession,3.1.3,60.02253648093537,
11,green,440,1.0,,,,,,0,10,10,10,,,,,,,,,,,,,,,,,,,,,md,002,2019_Sep_05_1215,StressSession,3.1.3,60.02253648093537,
12,green,440,1.0,,,,,,0,11,11,11,,,,,,,,,,,,,,,,,,,,,md,002,2019_Sep_05_1215,StressSession,3.1.3,60.02253648093537,
13,green,440,1.0,,,,,,0,12,12,12,,,,,,,,,,,,,,,,,,,,,md,002,2019_Sep_05_1215,StressSession,3.1.3,60.02253648093537,
14,green,440,1.0,,,,,,0,13,13,13,,,,,,,,,,,,,,,,,,,,,md,002,2019_Sep_05_1215,StressSession,3.1.3,60.02253648093537,
15,green,440,1.0,,,,,,0,14,14,14,,,,,,,,,,,,,,,,,,,,,md,002,2019_Sep_05_1215,StressSession,3.1.3,60.02253648093537,
16,green,440,1.0,,,,,,0,15,15,15,,,,,,,,,,,,,,,,,,,,,md,002,2019_Sep_05_1215,StressSession,3.1.3,60.02253648093537,
17,green,440,1.0,,,,,,0,16,16,16,,,,,,,,,,,,,,,,,,,,,md,002,2019_Sep_05_1215,StressSession,3.1.3,60.02253648093537,
18,green,440,1.0,,,,,,0,17,17,17,,,,,,,,,,,,,,,,,,,,,md,002,2019_Sep_05_1215,StressSession,3.1.3,60.02253648093537,
19,green,440,1.0,,,,,,0,18,18,18,,,,,,,,,,,,,,,,,,,,,md,002,2019_Sep_05_1215,StressSession,3.1.3,60.02253648093537,
20,green,440,1.0,,,,,,0,19,19,19,,,,,,,,,,,,,,,,,,,,,md,002,2019_Sep_05_1215,StressSession,3.1.3,60.02253648093537,
21,green,440,1.0,,,,,,0,20,20,20,,,,,,,,,,,,,,,,,,,,,md,002,2019_Sep_05_1215,StressSession,3.1.3,60.02253648093537,
22,green,440,1.0,,,,,,0,21,21,21,,,,,,,,,,,,,,,,,,,,,md,002,2019_Sep_05_1215,StressSession,3.1.3,60.02253648093537,
23,green,440,1.0,,,,,,0,22,22,22,,,,,,,,,,,,,,,,,,,,,md,002,2019_Sep_05_1215,StressSession,3.1.3,60.02253648093537,
24,green,440,1.0,,,,,,0,23,23,23,,,,,,,,,,,,,,,,,,,,,md,002,2019_Sep_05_1215,StressSession,3.1.3,60.02253648093537,
25,green,440,1.0,,,,,,0,24,24,24,,,,,,,,,,,,,,,,,,,,,md,002,2019_Sep_05_1215,StressSession,3.1.3,60.02253648093537,
26,green,440,1.0,,,,,,0,25,25,25,,,,,,,,,,,,,,,,,,,,,md,002,2019_Sep_05_1215,StressSession,3.1.3,60.02253648093537,
27,green,440,1.0,,,,,,0,26,26,26,,,,,,,,,,,,,,,,,,,,,md,002,2019_Sep_05_1215,StressSession,3.1.3,60.02253648093537,
28,green,440,1.0,,,,,,0,27,27,27,,,,,,,,,,,,,,,,,,,,,md,002,2019_Sep_05_1215,StressSession,3.1.3,60.02253648093537,
29,green,440,1.0,,,,,,0,28,28,28,,,,,,,,,,,,,,,,,,,,,md,002,2019_Sep_05_1215,StressSession,3.1.3,60.02253648093537,
30,green,440,1.0,,,,,,0,29,29,29,,,,,,,,,,,,,,,,,,,,,md,002,2019_Sep_05_1215,StressSession,3.1.3,60.02253648093537,
31,green,440,1.0,,,,,,0,30,30,30,,,,,,,,,,,,,,,,,,,,,md,002,2019_Sep_05_1215,StressSession,3.1.3,60.02253648093537,
32,green,440,1.0,,,,,,0,31,31,31,,,,,,,,,,,,,,,,,,,,,md,002,2019_Sep_05_1215,StressSession,3.1.3,60.02253648093537,
33,green,440,1.0,,,,,,0,32,32,32,,,,,,,,,,,,,,,,,,,,,md,002,2019_Sep_05_1215,StressSession,3.1.3,60.02253648093537,
34,green,440,1.0,,,,,,0,33,33,33,,,,,,,,,,,,,,,,,,,,,md,002,2019_Sep_05_1215,StressSession,3.1.3,60.02253648093537,
35,green,440,1.0,,,,,,0,34,34,34,,,,,,,,,,,,,,,,,,,,,md,002,2019_Sep_05_1215,StressSession,3.1.3,60.02253648093537,
36,green,440,1.0,,,,,,0,35,35,35,,,,,,,,,,,,,,,,,,,,,md,002,2019_Sep_05_1215,StressSession,3.1.3,60.02253648093537,
37,green,440,1.0,,,,,,0,36,36,36,,,,,,,,,,,,,,,,,,,,,md,002,2019_Sep_05_1215,StressSession,3.1.3,60.02253648093537,
38,green,440,1.0,,,,,,0,37,37,37,,,,,,,,,,,,,,,,,,,,,md,002,2019_Sep_05_1215,StressSession,3.1.3,60.02253648093537,
39,green,440,1.0,,,,,,0,38,38,38,,,,,,,,,,,,,,,,,,,,,md,002,2019_Sep_05_1215,StressSession,3.1.3,60.02253648093537,
40,green,440,1.0,,,,,,0,39,39,39,,,,,,,,,,,,,,,,,,,,,md,002,2019_Sep_05_1215,StressSession,3.1.3,60.02253648093537,
41,green,440,1.0,,,,,,0,40,40,40,,,,,,,,,,,,,,,,,,,,,md,002,2019_Sep_05_1215,StressSession,3.1.3,60.02253648093537,
42,green,440,1.0,,,,,,0,41,41,41,,,,,,,,,,,,,,,,,,,,,md,002,2019_Sep_05_1215,StressSession,3.1.3,60.02253648093537,
43,green,440,1.0,,,,,,0,42,42,42,,,,,,,,,,,,,,,,,,,,,md,002,2019_Sep_05_1215,StressSession,3.1.3,60.02253648093537,
44,green,440,1.0,,,,,,0,43,43,43,,,,,,,,,,,,,,,,,,,,,md,002,2019_Sep_05_1215,StressSession,3.1.3,60.02253648093537,
45,green,440,1.0,,,,,,0,44,44,44,,,,,,,,,,,,,,,,,,,,,md,002,2019_Sep_05_1215,StressSession,3.1.3,60.02253648093537,
46,green,440,1.0,,,,,,0,45,45,45,,,,,,,,,,,,,,,,,,,,,md,002,2019_Sep_05_1215,StressSession,3.1.3,60.02253648093537,
47,green,440,1.0,,,,,,0,46,46,46,,,,,,,,,,,,,,,,,,,,,md,002,2019_Sep_05_1215,StressSession,3.1.3,60.02253648093537,
48,green,440,1.0,,,,,,0,47,47,47,,,,,,,,,,,,,,,,,,,,,md,002,2019_Sep_05_1215,StressSession,3.1.3,60.02253648093537,
49,green,440,1.0,,,,,,0,48,48,48,,,,,,,,,,,,,,,,,,,,,md,002,2019_Sep_05_1215,StressSession,3.1.3,60.02253648093537,
50,green,440,1.0,,,,,,0,49,49,49,,,,,,,,,,,,,,,,,,,,,md,002,2019_Sep_05_1215,StressSession,3.1.3,60.02253648093537,
51,green,440,1.0,,,,,,0,50,50,50,,,,,,,,,,,,,,,,,,,,,md,002,2019_Sep_05_1215,StressSession,3.1.3,60.02253648093537,
52,green,440,1.0,,,,,,0,51,51,51,,,,,,,,,,,,,,,,,,,,,md,002,2019_Sep_05_1215,StressSession,3.1.3,60.02253648093537,
53,green,440,1.0,,,,,,0,52,52,52,,,,,,,,,,,,,,,,,,,,,md,002,2019_Sep_05_1215,StressSession,3.1.3,60.02253648093537,
54,green,440,1.0,,,,,,0,53,53,53,,,,,,,,,,,,,,,,,,,,,md,002,2019_Sep_05_1215,StressSession,3.1.3,60.02253648093537,
55,green,440,1.0,,,,,,0,54,54,54,,,,,,,,,,,,,,,,,,,,,md,002,2019_Sep_05_1215,StressSession,3.1.3,60.02253648093537,
56,green,440,1.0,,,,,,0,55,55,55,,,,,,,,,,,,,,,,,,,,,md,002,2019_Sep_05_1215,StressSession,3.1.3,60.02253648093537,
57,green,440,1.0,,,,,,0,56,56,56,,,,,,,,,,,,,,,,,,,,,md,002,2019_Sep_05_1215,StressSession,3.1.3,60.02253648093537,
58,green,440,1.0,,,,,,0,57,57,57,,,,,,,,,,,,,,,,,,,,,md,002,2019_Sep_05_1215,StressSession,3.1.3,60.02253648093537,
59,green,440,1.0,,,,,,0,58,58,58,,,,,,,,,,,,,,,,,,,,,md,002,2019_Sep_05_1215,StressSession,3.1.3,60.02253648093537,
60,green,440,1.0,,,,,,0,59,59,59,,,,,,,,,,,,,,,,,,,,,md,002,2019_Sep_05_1215,StressSession,3.1.3,60.02253648093537,
61,green,440,1.0,,,,,,0,60,60,60,,,,,,,,,,,,,,,,,,,,,md,002,2019_Sep_05_1215,StressSession,3.1.3,60.02253648093537,
62,green,440,1.0,,,,,,0,61,61,61,,,,,,,,,,,,,,,,,,,,,md,002,2019_Sep_05_1215,StressSession,3.1.3,60.02253648093537,
63,green,440,1.0,,,,,,0,62,62,62,,,,,,,,,,,,,,,,,,,,,md,002,2019_Sep_05_1215,StressSession,3.1.3,60.02253648093537,
64,green,440,1.0,,,,,,0,63,63,63,,,,,,,,,,,,,,,,,,,,,md,002,2019_Sep_05_1215,StressSession,3.1.3,60.02253648093537,
65,green,440,1.0,,,,,,0,64,64,64,,,,,,,,,,,,,,,,,,,,,md,002,2019_Sep_05_1215,StressSession,3.1.3,60.02253648093537,
66,green,440,1.0,,,,,,0,65,65,65,,,,,,,,,,,,,,,,,,,,,md,002,2019_Sep_05_1215,StressSession,3.1.3,60.02253648093537,
67,green,440,1.0,,,,,,0,66,66,66,,,,,,,,,,,,,,,,,,,,,md,002,2019_Sep_05_1215,StressSession,3.1.3,60.02253648093537,
68,green,440,1.0,,,,,,0,67,67,67,,,,,,,,,,,,,,,,,,,,,md,002,2019_Sep_05_1215,StressSession,3.1.3,60.02253648093537,
69,green,440,1.0,,,,,,0,68,68,68,,,,,,,,,,,,,,,,,,,,,md,002,2019_Sep_05_1215,StressSession,3.1.3,60.02253648093537,
70,green,440,1.0,,,,,,0,69,69,69,,,,,,,,,,,,,,,,,,,,,md,002,2019_Sep_05_1215,StressSession,3.1.3,60.02253648093537,
71,green,440,1.0,,,,,,0,70,70,70,,,,,,,,,,,,,,,,,,,,,md,002,2019_Sep_05_1215,StressSession,3.1.3,60.02253648093537,
72,green,440,1.0,,,,,,0,71,71,71,,,,,,,,,,,,,,,,,,,,,md,002,2019_Sep_05_1215,StressSession,3.1.3,60.02253648093537,
73,green,440,1.0,,,,,,0,72,72,72,,,,,,,,,,,,,,,,,,,,,md,002,2019_Sep_05_1215,StressSession,3.1.3,60.02253648093537,
74,green,440,1.0,,,,,,0,73,73,73,,,,,,,,,,,,,,,,,,,,,md,002,2019_Sep_05_1215,StressSession,3.1.3,60.02253648093537,
75,green,440,1.0,,,,,,0,74,74,74,,,,,,,,,,,,,,,,,,,,,md,002,2019_Sep_05_1215,StressSession,3.1.3,60.02253648093537,
76,green,440,1.0,,,,,,0,75,75,75,,,,,,,,,,,,,,,,,,,,,md,002,2019_Sep_05_1215,StressSession,3.1.3,60.02253648093537,
77,green,440,1.0,,,,,,0,76,76,76,,,,,,,,,,,,,,,,,,,,,md,002,2019_Sep_05_1215,StressSession,3.1.3,60.02253648093537,
78,green,440,1.0,,,,,,0,77,77,77,,,,,,,,,,,,,,,,,,,,,md,002,2019_Sep_05_1215,StressSession,3.1.3,60.02253648093537,
79,green,440,1.0,,,,,,0,78,78,78,,,,,,,,,,,,,,,,,,,,,md,002,2019_Sep_05_1215,StressSession,3.1.3,60.02253648093537,
80,green,440,1.0,,,,,,0,79,79,79,,,,,,,,,,,,,,,,,,,,,md,002,2019_Sep_05_1215,StressSession,3.1.3,60.02253648093537,
81,green,440,1.0,,,,,,0,80,80,80,,,,,,,,,,,,,,,,,,,,,md,002,2019_Sep_05_1215,StressSession,3.1.3,60.02253648093537,
82,green,440,1.0,,,,,,0,81,81,81,,,,,,,,,,,,,,,,,,,,,md,002,2019_Sep_05_1215,StressSession,3.1.3,60.02253648093537,
83,green,440,1.0,,,,,,0,82,82,82,,,,,,,,,,,,,,,,,,,,,md,002,2019_Sep_05_1215,StressSession,3.1.3,60.02253648093537,
84,green,440,1.0,,,,,,0,83,83,83,,,,,,,,,,,,,,,,,,,,,md,002,2019_Sep_05_1215,StressSession,3.1.3,60.02253648093537,
85,green,440,1.0,,,,,,0,84,84,84,,,,,,,,,,,,,,,,,,,,,md,002,2019_Sep_05_1215,StressSession,3.1.3,60.02253648093537,
86,green,440,1.0,,,,,,0,85,85,85,,,,,,,,,,,,,,,,,,,,,md,002,2019_Sep_05_1215,StressSession,3.1.3,60.02253648093537,
87,green,440,1.0,,,,,,0,86,86,86,,,,,,,,,,,,,,,,,,,,,md,002,2019_Sep_05_1215,StressSession,3.1.3,60.02253648093537,
88,green,440,1.0,,,,,,0,87,87,87,,,,,,,,,,,,,,,,,,,,,md,002,2019_Sep_05_1215,StressSession,3.1.3,60.02253648093537,
89,green,440,1.0,,,,,,0,88,88,88,,,,,,,,,,,,,,,,,,,,,md,002,2019_Sep_05_1215,StressSession,3.1.3,60.02253648093537,
90,green,440,1.0,,,,,,0,89,89,89,,,,,,,,,,,,,,,,,,,,,md,002,2019_Sep_05_1215,StressSession,3.1.3,60.02253648093537,
91,green,440,1.0,,,,,,0,90,90,90,,,,,,,,,,,,,,,,,,,,,md,002,2019_Sep_05_1215,StressSession,3.1.3,60.02253648093537,
92,green,440,1.0,,,,,,0,91,91,91,,,,,,,,,,,,,,,,,,,,,md,002,2019_Sep_05_1215,StressSession,3.1.3,60.02253648093537,
93,green,440,1.0,,,,,,0,92,92,92,,,,,,,,,,,,,,,,,,,,,md,002,2019_Sep_05_1215,StressSession,3.1.3,60.02253648093537,
94,green,440,1.0,,,,,,0,93,93,93,,,,,,,,,,,,,,,,,,,,,md,002,2019_Sep_05_1215,StressSession,3.1.3,60.02253648093537,
95,green,440,1.0,,,,,,0,94,94,94,,,,,,,,,,,,,,,,,,,,,md,002,2019_Sep_05_1215,StressSession,3.1.3,60.02253648093537,
96,green,440,1.0,,,,,,0,95,95,95,,,,,,,,,,,,,,,,,,,,,md,002,2019_Sep_05_1215,StressSession,3.1.3,60.02253648093537,
97,green,440,1.0,,,,,,0,96,96,96,,,,,,,,,,,,,,,,,,,,,md,002,2019_Sep_05_1215,StressSession,3.1.3,60.02253648093537,
98,green,440,1.0,,,,,,0,97,97,97,,,,,,,,,,,,,,,,,,,,,md,002,2019_Sep_05_1215,StressSession,3.1.3,60.02253648093537,
99,green,440,1.0,,,,,,0,98,98,98,,,,,,,,,,,,,,,,,,,,,md,002,2019_Sep_05_1215,StressSession,3.1.3,60.02253648093537,
100,green,440,1.0,,,,,,0,99,99,99,,,,,,,,,,,,,,,,,,,,,md,002,2019_Sep_05_1215,StressSession,3.1.3,60.02253648093537,
101,green,440,1.0,,,,,,0,100,100,100,,,,,,,,,,,,,,,,,,,,,md,002,2019_Sep_05_1215,StressSession,3.1.3,60.02253648093537,
102,green,440,1.0,,,,,,0,101,101,101,,,,,,,,,,,,,,,,,,,,,md,002,2019_Sep_05_1215,StressSession,3.1.3,60.02253648093537,
103,green,440,1.0,,,,,,0,102,102,102,,,,,,,,,,,,,,,,,,,,,md,002,2019_Sep_05_1215,StressSession,3.1.3,60.02253648093537,
104,green,440,1.0,,,,,,0,103,103,103,,,,,,,,,,,,,,,,,,,,,md,002,2019_Sep_05_1215,StressSession,3.1.3,60.02253648093537,
105,green,440,1.0,,,,,,0,104,104,104,,,,,,,,,,,,,,,,,,,,,md,002,2019_Sep_05_1215,StressSession,3.1.3,60.02253648093537,
106,green,440,1.0,,,,,,0,105,105,105,,,,,,,,,,,,,,,,,,,,,md,002,2019_Sep_05_1215,StressSession,3.1.3,60.02253648093537,
107,green,440,1.0,,,,,,0,106,106,106,,,,,,,,,,,,,,,,,,,,,md,002,2019_Sep_05_1215,StressSession,3.1.3,60.02253648093537,
108,green,440,1.0,,,,,,0,107,107,107,,,,,,,,,,,,,,,,,,,,,md,002,2019_Sep_05_1215,StressSession,3.1.3,60.02253648093537,
109,green,440,1.0,,,,,,0,108,108,108,,,,,,,,,,,,,,,,,,,,,md,002,2019_Sep_05_1215,StressSession,3.1.3,60.02253648093537,
110,green,440,1.0,,,,,,0,109,109,109,,,,,,,,,,,,,,,,,,,,,md,002,2019_Sep_05_1215,StressSession,3.1.3,60.02253648093537,
111,green,440,1.0,,,,,,0,110,110,110,,,,,,,,,,,,,,,,,,,,,md,002,2019_Sep_05_1215,StressSession,3.1.3,60.02253648093537,
112,green,440,1.0,,,,,,0,111,111,111,,,,,,,,,,,,,,,,,,,,,md,002,2019_Sep_05_1215,StressSession,3.1.3,60.02253648093537,
113,green,440,1.0,,,,,,0,112,112,112,,,,,,,,,,,,,,,,,,,,,md,002,2019_Sep_05_1215,StressSession,3.1.3,60.02253648093537,
114,green,440,1.0,,,,,,0,113,113,113,,,,,,,,,,,,,,,,,,,,,md,002,2019_Sep_05_1215,StressSession,3.1.3,60.02253648093537,
115,green,440,1.0,,,,,,0,114,114,114,,,,,,,,,,,,,,,,,,,,,md,002,2019_Sep_05_1215,StressSession,3.1.3,60.02253648093537,
116,green,440,1.0,,,,,,0,115,115,115,,,,,,,,,,,,,,,,,,,,,md,002,2019_Sep_05_1215,StressSession,3.1.3,60.02253648093537,
117,green,440,1.0,,,,,,0,116,116,116,,,,,,,,,,,,,,,,,,,,,md,002,2019_Sep_05_1215,StressSession,3.1.3,60.02253648093537,
118,green,440,1.0,,,,,,0,117,117,117,,,,,,,,,,,,,,,,,,,,,md,002,2019_Sep_05_1215,StressSession,3.1.3,60.02253648093537,
119,green,440,1.0,,,,,,0,118,118,118,,,,,,,,,,,,,,,,,,,,,md,002,2019_Sep_05_1215,StressSession,3.1.3,60.02253648093537,
120,green,440,1.0,,,,,,0,119,119,119,,,,,,,,,,,,,,,,,,,,,md,002,2019_Sep_05_1215,StressSession,3.1.3,60.02253648093537,
121,green,440,1.0,,,,,,0,120,120,120,,,,,,,,,,,,,,,,,,,,,md,002,2019_Sep_05_1215,StressSession,3.1.3,60.02253648093537,
122,green,440,1.0,,,,,,0,121,121,121,,,,,,,,,,,,,,,,,,,,,md,002,2019_Sep_05_1215,StressSession,3.1.3,60.02253648093537,
123,green,440,1.0,,,,,,0,122,122,122,,,,,,,,,,,,,,,,,,,,,md,002,2019_Sep_05_1215,StressSession,3.1.3,60.02253648093537,
124,green,440,1.0,,,,,,0,123,123,123,,,,,,,,,,,,,,,,,,,,,md,002,2019_Sep_05_1215,StressSession,3.1.3,60.02253648093537,
125,green,440,1.0,,,,,,0,124,124,124,,,,,,,,,,,,,,,,,,,,,md,002,2019_Sep_05_1215,StressSession,3.1.3,60.02253648093537,
126,green,440,1.0,,,,,,0,125,125,125,,,,,,,,,,,,,,,,,,,,,md,002,2019_Sep_05_1215,StressSession,3.1.3,60.02253648093537,
127,green,440,1.0,,,,,,0,126,126,126,,,,,,,,,,,,,,,,,,,,,md,002,2019_Sep_05_1215,StressSession,3.1.3,60.02253648093537,
128,green,440,1.0,,,,,,0,127,127,127,,,,,,,,,,,,,,,,,,,,,md,002,2019_Sep_05_1215,StressSession,3.1.3,60.02253648093537,
129,green,440,1.0,,,,,,0,128,128,128,,,,,,,,,,,,,,,,,,,,,md,002,2019_Sep_05_1215,StressSession,3.1.3,60.02253648093537,
130,green,440,1.0,,,,,,0,129,129,129,,,,,,,,,,,,,,,,,,,,,md,002,2019_Sep_05_1215,StressSession,3.1.3,60.02253648093537,
131,green,440,1.0,,,,,,0,130,130,130,,,,,,,,,,,,,,,,,,,,,md,002,2019_Sep_05_1215,StressSession,3.1.3,60.02253648093537,
132,green,440,1.0,,,,,,0,131,131,131,,,,,,,,,,,,,,,,,,,,,md,002,2019_Sep_05_1215,StressSession,3.1.3,60.02253648093537,
133,green,440,1.0,,,,,,0,132,132,132,,,,,,,,,,,,,,,,,,,,,md,002,2019_Sep_05_1215,StressSession,3.1.3,60.02253648093537,
134,green,440,1.0,,,,,,0,133,133,133,,,,,,,,,,,,,,,,,,,,,md,002,2019_Sep_05_1215,StressSession,3.1.3,60.02253648093537,
135,green,440,1.0,,,,,,0,134,134,134,,,,,,,,,,,,,,,,,,,,,md,002,2019_Sep_05_1215,StressSession,3.1.3,60.02253648093537,
136,green,440,1.0,,,,,,0,135,135,135,,,,,,,,,,,,,,,,,,,,,md,002,2019_Sep_05_1215,StressSession,3.1.3,60.02253648093537,
137,green,440,1.0,,,,,,0,136,136,136,,,,,,,,,,,,,,,,,,,,,md,002,2019_Sep_05_1215,StressSession,3.1.3,60.02253648093537,
138,green,440,1.0,,,,,,0,137,137,137,,,,,,,,,,,,,,,,,,,,,md,002,2019_Sep_05_1215,StressSession,3.1.3,60.02253648093537,
139,green,440,1.0,,,,,,0,138,138,138,,,,,,,,,,,,,,,,,,,,,md,002,2019_Sep_05_1215,StressSession,3.1.3,60.02253648093537,
140,green,440,1.0,,,,,,0,139,139,139,,,,,,,,,,,,,,,,,,,,,md,002,2019_Sep_05_1215,StressSession,3.1.3,60.02253648093537,
141,green,440,1.0,,,,,,0,140,140,140,,,,,,,,,,,,,,,,,,,,,md,002,2019_Sep_05_1215,StressSession,3.1.3,60.02253648093537,
142,green,440,1.0,,,,,,0,141,141,141,,,,,,,,,,,,,,,,,,,,,md,002,2019_Sep_05_1215,StressSession,3.1.3,60.02253648093537,
143,green,440,1.0,,,,,,0,142,142,142,,,,,,,,,,,,,,,,,,,,,md,002,2019_Sep_05_1215,StressSession,3.1.3,60.02253648093537,
144,green,440,1.0,,,,,,0,143,143,143,,,,,,,,,,,,,,,,,,,,,md,002,2019_Sep_05_1215,StressSession,3.1.3,60.02253648093537,
145,green,440,1.0,,,,,,0,144,144,144,,,,,,,,,,,,,,,,,,,,,md,002,2019_Sep_05_1215,StressSession,3.1.3,60.02253648093537,
146,green,440,1.0,,,,,,0,145,145,145,,,,,,,,,,,,,,,,,,,,,md,002,2019_Sep_05_1215,StressSession,3.1.3,60.02253648093537,
147,green,440,1.0,,,,,,0,146,146,146,,,,,,,,,,,,,,,,,,,,,md,002,2019_Sep_05_1215,StressSession,3.1.3,60.02253648093537,
148,green,440,1.0,,,,,,0,147,147,147,,,,,,,,,,,,,,,,,,,,,md,002,2019_Sep_05_1215,StressSession,3.1.3,60.02253648093537,
149,green,440,1.0,,,,,,0,148,148,148,,,,,,,,,,,,,,,,,,,,,md,002,2019_Sep_05_1215,StressSession,3.1.3,60.02253648093537,
150,green,440,1.0,,,,,,0,149,149,149,,,,,,,,,,,,,,,,,,,,,md,002,2019_Sep_05_1215,StressSession,3.1.3,60.02253648093537,
151,green,440,1.0,,,,,,0,150,150,150,,,,,,,,,,,,,,,,,,,,,md,002,2019_Sep_05_1215,StressSession,3.1.3,60.02253648093537,
152,green,440,1.0,,,,,,0,151,151,151,,,,,,,,,,,,,,,,,,,,,md,002,2019_Sep_05_1215,StressSession,3.1.3,60.02253648093537,
153,green,440,1.0,,,,,,0,152,152,152,,,,,,,,,,,,,,,,,,,,,md,002,2019_Sep_05_1215,StressSession,3.1.3,60.02253648093537,
154,green,440,1.0,,,,,,0,153,153,153,,,,,,,,,,,,,,,,,,,,,md,002,2019_Sep_05_1215,StressSession,3.1.3,60.02253648093537,
155,green,440,1.0,,,,,,0,154,154,154,,,,,,,,,,,,,,,,,,,,,md,002,2019_Sep_05_1215,StressSession,3.1.3,60.02253648093537,
156,green,440,1.0,,,,,,0,155,155,155,,,,,,,,,,,,,,,,,,,,,md,002,2019_Sep_05_1215,StressSession,3.1.3,60.02253648093537,
157,green,440,1.0,,,,,,0,156,156,156,,,,,,,,,,,,,,,,,,,,,md,002,2019_Sep_05_1215,StressSession,3.1.3,60.02253648093537,
158,green,440,1.0,,,,,,0,157,157,157,,,,,,,,,,,,,,,,,,,,,md,002,2019_Sep_05_1215,StressSession,3.1.3,60.02253648093537,
159,green,440,1.0,,,,,,0,158,158,158,,,,,,,,,,,,,,,,,,,,,md,002,2019_Sep_05_1215,StressSession,3.1.3,60.02253648093537,
160,green,440,1.0,,,,,,0,159,159,159,,,,,,,,,,,,,,,,,,,,,md,002,2019_Sep_05_1215,StressSession,3.1.3,60.02253648093537,
161,green,440,1.0,,,,,,0,160,160,160,,,,,,,,,,,,,,,,,,,,,md,002,2019_Sep_05_1215,StressSession,3.1.3,60.02253648093537,
162,green,440,1.0,,,,,,0,161,161,161,,,,,,,,,,,,,,,,,,,,,md,002,2019_Sep_05_1215,StressSession,3.1.3,60.02253648093537,
163,green,440,1.0,,,,,,0,162,162,162,,,,,,,,,,,,,,,,,,,,,md,002,2019_Sep_05_1215,StressSession,3.1.3,60.02253648093537,
164,green,440,1.0,,,,,,0,163,163,163,,,,,,,,,,,,,,,,,,,,,md,002,2019_Sep_05_1215,StressSession,3.1.3,60.02253648093537,
165,green,440,1.0,,,,,,0,164,164,164,,,,,,,,,,,,,,,,,,,,,md,002,2019_Sep_05_1215,StressSession,3.1.3,60.02253648093537,
166,green,440,1.0,,,,,,0,165,165,165,,,,,,,,,,,,,,,,,,,,,md,002,2019_Sep_05_1215,StressSession,3.1.3,60.02253648093537,
167,green,440,1.0,,,,,,0,166,166,166,,,,,,,,,,,,,,,,,,,,,md,002,2019_Sep_05_1215,StressSession,3.1.3,60.02253648093537,
168,green,440,1.0,,,,,,0,167,167,167,,,,,,,,,,,,,,,,,,,,,md,002,2019_Sep_05_1215,StressSession,3.1.3,60.02253648093537,
169,green,440,1.0,,,,,,0,168,168,168,,,,,,,,,,,,,,,,,,,,,md,002,2019_Sep_05_1215,StressSession,3.1.3,60.02253648093537,
170,green,440,1.0,,,,,,0,169,169,169,,,,,,,,,,,,,,,,,,,,,md,002,2019_Sep_05_1215,StressSession,3.1.3,60.02253648093537,
171,green,440,1.0,,,,,,0,170,170,170,,,,,,,,,,,,,,,,,,,,,md,002,2019_Sep_05_1215,StressSession,3.1.3,60.02253648093537,
172,green,440,1.0,,,,,,0,171,171,171,,,,,,,,,,,,,,,,,,,,,md,002,2019_Sep_05_1215,StressSession,3.1.3,60.02253648093537,
173,green,440,1.0,,,,,,0,172,172,172,,,,,,,,,,,,,,,,,,,,,md,002,2019_Sep_05_1215,StressSession,3.1.3,60.02253648093537,
174,green,440,1.0,,,,,,0,173,173,173,,,,,,,,,,,,,,,,,,,,,md,002,2019_Sep_05_1215,StressSession,3.1.3,60.02253648093537,
175,green,440,1.0,,,,,,0,174,174,174,,,,,,,,,,,,,,,,,,,,,md,002,2019_Sep_05_1215,StressSession,3.1.3,60.02253648093537,
176,green,440,1.0,,,,,,0,175,175,175,,,,,,,,,,,,,,,,,,,,,md,002,2019_Sep_05_1215,StressSession,3.1.3,60.02253648093537,
177,green,440,1.0,,,,,,0,176,176,176,,,,,,,,,,,,,,,,,,,,,md,002,2019_Sep_05_1215,StressSession,3.1.3,60.02253648093537,
178,green,440,1.0,,,,,,0,177,177,177,,,,,,,,,,,,,,,,,,,,,md,002,2019_Sep_05_1215,StressSession,3.1.3,60.02253648093537,
179,green,440,1.0,,,,,,0,178,178,178,,,,,,,,,,,,,,,,,,,,,md,002,2019_Sep_05_1215,StressSession,3.1.3,60.02253648093537,
180,yellow,880,0.5,,,,,,0,179,179,179,,,,,,,,,,,,,,,,,,,,,md,002,2019_Sep_05_1215,StressSession,3.1.3,60.02253648093537,
181,yellow,880,0.5,,,,,,0,180,180,180,,,,,,,,,,,,,,,,,,,,,md,002,2019_Sep_05_1215,StressSession,3.1.3,60.02253648093537,
182,yellow,880,0.5,,,,,,0,181,181,181,,,,,,,,,,,,,,,,,,,,,md,002,2019_Sep_05_1215,StressSession,3.1.3,60.02253648093537,
183,yellow,880,0.5,,,,,,0,182,182,182,,,,,,,,,,,,,,,,,,,,,md,002,2019_Sep_05_1215,StressSession,3.1.3,60.02253648093537,
184,yellow,880,0.5,,,,,,0,183,183,183,,,,,,,,,,,,,,,,,,,,,md,002,2019_Sep_05_1215,StressSession,3.1.3,60.02253648093537,
185,yellow,880,0.5,,,,,,0,184,184,184,,,,,,,,,,,,,,,,,,,,,md,002,2019_Sep_05_1215,StressSession,3.1.3,60.02253648093537,
186,yellow,880,0.5,,,,,,0,185,185,185,,,,,,,,,,,,,,,,,,,,,md,002,2019_Sep_05_1215,StressSession,3.1.3,60.02253648093537,
187,yellow,880,0.5,,,,,,0,186,186,186,,,,,,,,,,,,,,,,,,,,,md,002,2019_Sep_05_1215,StressSession,3.1.3,60.02253648093537,
188,yellow,880,0.5,,,,,,0,187,187,187,,,,,,,,,,,,,,,,,,,,,md,002,2019_Sep_05_1215,StressSession,3.1.3,60.02253648093537,
189,yellow,880,0.5,,,,,,0,188,188,188,,,,,,,,,,,,,,,,,,,,,md,002,2019_Sep_05_1215,StressSession,3.1.3,60.02253648093537,
190,yellow,880,0.5,,,,,,0,189,189,189,,,,,,,,,,,,,,,,,,,,,md,002,2019_Sep_05_1215,StressSession,3.1.3,60.02253648093537,
191,yellow,880,0.5,,,,,,0,190,190,190,,,,,,,,,,,,,,,,,,,,,md,002,2019_Sep_05_1215,StressSession,3.1.3,60.02253648093537,
192,yellow,880,0.5,,,,,,0,191,191,191,,,,,,,,,,,,,,,,,,,,,md,002,2019_Sep_05_1215,StressSession,3.1.3,60.02253648093537,
193,yellow,880,0.5,,,,,,0,192,192,192,,,,,,,,,,,,,,,,,,,,,md,002,2019_Sep_05_1215,StressSession,3.1.3,60.02253648093537,
194,yellow,880,0.5,,,,,,0,193,193,193,,,,,,,,,,,,,,,,,,,,,md,002,2019_Sep_05_1215,StressSession,3.1.3,60.02253648093537,
195,yellow,880,0.5,,,,,,0,194,194,194,,,,,,,,,,,,,,,,,,,,,md,002,2019_Sep_05_1215,StressSession,3.1.3,60.02253648093537,
196,yellow,880,0.5,,,,,,0,195,195,195,,,,,,,,,,,,,,,,,,,,,md,002,2019_Sep_05_1215,StressSession,3.1.3,60.02253648093537,
197,yellow,880,0.5,,,,,,0,196,196,196,,,,,,,,,,,,,,,,,,,,,md,002,2019_Sep_05_1215,StressSession,3.1.3,60.02253648093537,
198,yellow,880,0.5,,,,,,0,197,197,197,,,,,,,,,,,,,,,,,,,,,md,002,2019_Sep_05_1215,StressSession,3.1.3,60.02253648093537,
199,yellow,880,0.5,,,,,,0,198,198,198,,,,,,,,,,,,,,,,,,,,,md,002,2019_Sep_05_1215,StressSession,3.1.3,60.02253648093537,
200,yellow,880,0.5,,,,,,0,199,199,199,,,,,,,,,,,,,,,,,,,,,md,002,2019_Sep_05_1215,StressSession,3.1.3,60.02253648093537,
201,yellow,880,0.5,,,,,,0,200,200,200,,,,,,,,,,,,,,,,,,,,,md,002,2019_Sep_05_1215,StressSession,3.1.3,60.02253648093537,
202,yellow,880,0.5,,,,,,0,201,201,201,,,,,,,,,,,,,,,,,,,,,md,002,2019_Sep_05_1215,StressSession,3.1.3,60.02253648093537,
203,yellow,880,0.5,,,,,,0,202,202,202,,,,,,,,,,,,,,,,,,,,,md,002,2019_Sep_05_1215,StressSession,3.1.3,60.02253648093537,
204,yellow,880,0.5,,,,,,0,203,203,203,,,,,,,,,,,,,,,,,,,,,md,002,2019_Sep_05_1215,StressSession,3.1.3,60.02253648093537,
205,yellow,880,0.5,,,,,,0,204,204,204,,,,,,,,,,,,,,,,,,,,,md,002,2019_Sep_05_1215,StressSession,3.1.3,60.02253648093537,
206,yellow,880,0.5,,,,,,0,205,205,205,,,,,,,,,,,,,,,,,,,,,md,002,2019_Sep_05_1215,StressSession,3.1.3,60.02253648093537,
207,yellow,880,0.5,,,,,,0,206,206,206,,,,,,,,,,,,,,,,,,,,,md,002,2019_Sep_05_1215,StressSession,3.1.3,60.02253648093537,
208,yellow,880,0.5,,,,,,0,207,207,207,,,,,,,,,,,,,,,,,,,,,md,002,2019_Sep_05_1215,StressSession,3.1.3,60.02253648093537,
209,yellow,880,0.5,,,,,,0,208,208,208,,,,,,,,,,,,,,,,,,,,,md,002,2019_Sep_05_1215,StressSession,3.1.3,60.02253648093537,
210,yellow,880,0.5,,,,,,0,209,209,209,,,,,,,,,,,,,,,,,,,,,md,002,2019_Sep_05_1215,StressSession,3.1.3,60.02253648093537,
211,yellow,880,0.5,,,,,,0,210,210,210,,,,,,,,,,,,,,,,,,,,,md,002,2019_Sep_05_1215,StressSession,3.1.3,60.02253648093537,
212,yellow,880,0.5,,,,,,0,211,211,211,,,,,,,,,,,,,,,,,,,,,md,002,2019_Sep_05_1215,StressSession,3.1.3,60.02253648093537,
213,yellow,880,0.5,,,,,,0,212,212,212,,,,,,,,,,,,,,,,,,,,,md,002,2019_Sep_05_1215,StressSession,3.1.3,60.02253648093537,
214,yellow,880,0.5,,,,,,0,213,213,213,,,,,,,,,,,,,,,,,,,,,md,002,2019_Sep_05_1215,StressSession,3.1.3,60.02253648093537,
215,yellow,880,0.5,,,,,,0,214,214,214,,,,,,,,,,,,,,,,,,,,,md,002,2019_Sep_05_1215,StressSession,3.1.3,60.02253648093537,
216,yellow,880,0.5,,,,,,0,215,215,215,,,,,,,,,,,,,,,,,,,,,md,002,2019_Sep_05_1215,StressSession,3.1.3,60.02253648093537,
217,yellow,880,0.5,,,,,,0,216,216,216,,,,,,,,,,,,,,,,,,,,,md,002,2019_Sep_05_1215,StressSession,3.1.3,60.02253648093537,
218,yellow,880,0.5,,,,,,0,217,217,217,,,,,,,,,,,,,,,,,,,,,md,002,2019_Sep_05_1215,StressSession,3.1.3,60.02253648093537,
219,yellow,880,0.5,,,,,,0,218,218,218,,,,,,,,,,,,,,,,,,,,,md,002,2019_Sep_05_1215,StressSession,3.1.3,60.02253648093537,
220,yellow,880,0.5,,,,,,0,219,219,219,,,,,,,,,,,,,,,,,,,,,md,002,2019_Sep_05_1215,StressSession,3.1.3,60.02253648093537,
221,yellow,880,0.5,,,,,,0,220,220,220,,,,,,,,,,,,,,,,,,,,,md,002,2019_Sep_05_1215,StressSession,3.1.3,60.02253648093537,
222,yellow,880,0.5,,,,,,0,221,221,221,,,,,,,,,,,,,,,,,,,,,md,002,2019_Sep_05_1215,StressSession,3.1.3,60.02253648093537,
223,yellow,880,0.5,,,,,,0,222,222,222,,,,,,,,,,,,,,,,,,,,,md,002,2019_Sep_05_1215,StressSession,3.1.3,60.02253648093537,
224,yellow,880,0.5,,,,,,0,223,223,223,,,,,,,,,,,,,,,,,,,,,md,002,2019_Sep_05_1215,StressSession,3.1.3,60.02253648093537,
225,yellow,880,0.5,,,,,,0,224,224,224,,,,,,,,,,,,,,,,,,,,,md,002,2019_Sep_05_1215,StressSession,3.1.3,60.02253648093537,
226,yellow,880,0.5,,,,,,0,225,225,225,,,,,,,,,,,,,,,,,,,,,md,002,2019_Sep_05_1215,StressSession,3.1.3,60.02253648093537,
227,yellow,880,0.5,,,,,,0,226,226,226,,,,,,,,,,,,,,,,,,,,,md,002,2019_Sep_05_1215,StressSession,3.1.3,60.02253648093537,
228,yellow,880,0.5,,,,,,0,227,227,227,,,,,,,,,,,,,,,,,,,,,md,002,2019_Sep_05_1215,StressSession,3.1.3,60.02253648093537,
229,yellow,880,0.5,,,,,,0,228,228,228,,,,,,,,,,,,,,,,,,,,,md,002,2019_Sep_05_1215,StressSession,3.1.3,60.02253648093537,
230,yellow,880,0.5,,,,,,0,229,229,229,,,,,,,,,,,,,,,,,,,,,md,002,2019_Sep_05_1215,StressSession,3.1.3,60.02253648093537,
231,yellow,880,0.5,,,,,,0,230,230,230,,,,,,,,,,,,,,,,,,,,,md,002,2019_Sep_05_1215,StressSession,3.1.3,60.02253648093537,
232,yellow,880,0.5,,,,,,0,231,231,231,,,,,,,,,,,,,,,,,,,,,md,002,2019_Sep_05_1215,StressSession,3.1.3,60.02253648093537,
233,yellow,880,0.5,,,,,,0,232,232,232,,,,,,,,,,,,,,,,,,,,,md,002,2019_Sep_05_1215,StressSession,3.1.3,60.02253648093537,
234,yellow,880,0.5,,,,,,0,233,233,233,,,,,,,,,,,,,,,,,,,,,md,002,2019_Sep_05_1215,StressSession,3.1.3,60.02253648093537,
235,yellow,880,0.5,,,,,,0,234,234,234,,,,,,,,,,,,,,,,,,,,,md,002,2019_Sep_05_1215,StressSession,3.1.3,60.02253648093537,
236,yellow,880,0.5,,,,,,0,235,235,235,,,,,,,,,,,,,,,,,,,,,md,002,2019_Sep_05_1215,StressSession,3.1.3,60.02253648093537,
237,yellow,880,0.5,,,,,,0,236,236,236,,,,,,,,,,,,,,,,,,,,,md,002,2019_Sep_05_1215,StressSession,3.1.3,60.02253648093537,
238,yellow,880,0.5,,,,,,0,237,237,237,,,,,,,,,,,,,,,,,,,,,md,002,2019_Sep_05_1215,StressSession,3.1.3,60.02253648093537,
239,yellow,880,0.5,,,,,,0,238,238,238,,,,,,,,,,,,,,,,,,,,,md,002,2019_Sep_05_1215,StressSession,3.1.3,60.02253648093537,
240,red,1760,0.5,,,,,,0,239,239,239,,,,,,,,,,,,,,,,,,,,,md,002,2019_Sep_05_1215,StressSession,3.1.3,60.02253648093537,
241,red,1760,0.5,,,,,,0,240,240,240,,,,,,,,,,,,,,,,,,,,,md,002,2019_Sep_05_1215,StressSession,3.1.3,60.02253648093537,
242,red,1760,0.5,,,,,,0,241,241,241,,,,,,,,,,,,,,,,,,,,,md,002,2019_Sep_05_1215,StressSession,3.1.3,60.02253648093537,
243,red,1760,0.5,,,,,,0,242,242,242,,,,,,,,,,,,,,,,,,,,,md,002,2019_Sep_05_1215,StressSession,3.1.3,60.02253648093537,
244,red,1760,0.5,,,,,,0,243,243,243,,,,,,,,,,,,,,,,,,,,,md,002,2019_Sep_05_1215,StressSession,3.1.3,60.02253648093537,
245,red,1760,0.5,,,,,,0,244,244,244,,,,,,,,,,,,,,,,,,,,,md,002,2019_Sep_05_1215,StressSession,3.1.3,60.02253648093537,
246,red,1760,0.5,,,,,,0,245,245,245,,,,,,,,,,,,,,,,,,,,,md,002,2019_Sep_05_1215,StressSession,3.1.3,60.02253648093537,
247,red,1760,0.5,,,,,,0,246,246,246,,,,,,,,,,,,,,,,,,,,,md,002,2019_Sep_05_1215,StressSession,3.1.3,60.02253648093537,
248,red,1760,0.5,,,,,,0,247,247,247,,,,,,,,,,,,,,,,,,,,,md,002,2019_Sep_05_1215,StressSession,3.1.3,60.02253648093537,
249,red,1760,0.5,,,,,,0,248,248,248,,,,,,,,,,,,,,,,,,,,,md,002,2019_Sep_05_1215,StressSession,3.1.3,60.02253648093537,
250,red,1760,0.5,,,,,,0,249,249,249,,,,,,,,,,,,,,,,,,,,,md,002,2019_Sep_05_1215,StressSession,3.1.3,60.02253648093537,
251,red,1760,0.5,,,,,,0,250,250,250,,,,,,,,,,,,,,,,,,,,,md,002,2019_Sep_05_1215,StressSession,3.1.3,60.02253648093537,
252,red,1760,0.5,,,,,,0,251,251,251,,,,,,,,,,,,,,,,,,,,,md,002,2019_Sep_05_1215,StressSession,3.1.3,60.02253648093537,
253,red,1760,0.5,,,,,,0,252,252,252,,,,,,,,,,,,,,,,,,,,,md,002,2019_Sep_05_1215,StressSession,3.1.3,60.02253648093537,
254,red,1760,0.5,,,,,,0,253,253,253,,,,,,,,,,,,,,,,,,,,,md,002,2019_Sep_05_1215,StressSession,3.1.3,60.02253648093537,
255,red,1760,0.5,,,,,,0,254,254,254,,,,,,,,,,,,,,,,,,,,,md,002,2019_Sep_05_1215,StressSession,3.1.3,60.02253648093537,
256,red,1760,0.5,,,,,,0,255,255,255,,,,,,,,,,,,,,,,,,,,,md,002,2019_Sep_05_1215,StressSession,3.1.3,60.02253648093537,
257,red,1760,0.5,,,,,,0,256,256,256,,,,,,,,,,,,,,,,,,,,,md,002,2019_Sep_05_1215,StressSession,3.1.3,60.02253648093537,
258,red,1760,0.5,,,,,,0,257,257,257,,,,,,,,,,,,,,,,,,,,,md,002,2019_Sep_05_1215,StressSession,3.1.3,60.02253648093537,
259,red,1760,0.5,,,,,,0,258,258,258,,,,,,,,,,,,,,,,,,,,,md,002,2019_Sep_05_1215,StressSession,3.1.3,60.02253648093537,
260,red,1760,0.5,,,,,,0,259,259,259,,,,,,,,,,,,,,,,,,,,,md,002,2019_Sep_05_1215,StressSession,3.1.3,60.02253648093537,
261,red,1760,0.5,,,,,,0,260,260,260,,,,,,,,,,,,,,,,,,,,,md,002,2019_Sep_05_1215,StressSession,3.1.3,60.02253648093537,
262,red,1760,0.5,,,,,,0,261,261,261,,,,,,,,,,,,,,,,,,,,,md,002,2019_Sep_05_1215,StressSession,3.1.3,60.02253648093537,
263,red,1760,0.5,,,,,,0,262,262,262,,,,,,,,,,,,,,,,,,,,,md,002,2019_Sep_05_1215,StressSession,3.1.3,60.02253648093537,
264,red,1760,0.5,,,,,,0,263,263,263,,,,,,,,,,,,,,,,,,,,,md,002,2019_Sep_05_1215,StressSession,3.1.3,60.02253648093537,
265,red,1760,0.5,,,,,,0,264,264,264,,,,,,,,,,,,,,,,,,,,,md,002,2019_Sep_05_1215,StressSession,3.1.3,60.02253648093537,
266,red,1760,0.5,,,,,,0,265,265,265,,,,,,,,,,,,,,,,,,,,,md,002,2019_Sep_05_1215,StressSession,3.1.3,60.02253648093537,
267,red,1760,0.5,,,,,,0,266,266,266,,,,,,,,,,,,,,,,,,,,,md,002,2019_Sep_05_1215,StressSession,3.1.3,60.02253648093537,
268,red,1760,0.5,,,,,,0,267,267,267,,,,,,,,,,,,,,,,,,,,,md,002,2019_Sep_05_1215,StressSession,3.1.3,60.02253648093537,
269,red,1760,0.5,,,,,,0,268,268,268,,,,,,,,,,,,,,,,,,,,,md,002,2019_Sep_05_1215,StressSession,3.1.3,60.02253648093537,
270,red,1760,0.5,,,,,,0,269,269,269,,,,,,,,,,,,,,,,,,,,,md,002,2019_Sep_05_1215,StressSession,3.1.3,60.02253648093537,
271,red,1760,0.5,,,,,,0,270,270,270,,,,,,,,,,,,,,,,,,,,,md,002,2019_Sep_05_1215,StressSession,3.1.3,60.02253648093537,
272,red,1760,0.5,,,,,,0,271,271,271,,,,,,,,,,,,,,,,,,,,,md,002,2019_Sep_05_1215,StressSession,3.1.3,60.02253648093537,
273,red,1760,0.5,,,,,,0,272,272,272,,,,,,,,,,,,,,,,,,,,,md,002,2019_Sep_05_1215,StressSession,3.1.3,60.02253648093537,
274,red,1760,0.5,,,,,,0,273,273,273,,,,,,,,,,,,,,,,,,,,,md,002,2019_Sep_05_1215,StressSession,3.1.3,60.02253648093537,
275,red,1760,0.5,,,,,,0,274,274,274,,,,,,,,,,,,,,,,,,,,,md,002,2019_Sep_05_1215,StressSession,3.1.3,60.02253648093537,
276,red,1760,0.5,,,,,,0,275,275,275,,,,,,,,,,,,,,,,,,,,,md,002,2019_Sep_05_1215,StressSession,3.1.3,60.02253648093537,
277,red,1760,0.5,,,,,,0,276,276,276,,,,,,,,,,,,,,,,,,,,,md,002,2019_Sep_05_1215,StressSession,3.1.3,60.02253648093537,
278,red,1760,0.5,,,,,,0,277,277,277,,,,,,,,,,,,,,,,,,,,,md,002,2019_Sep_05_1215,StressSession,3.1.3,60.02253648093537,
279,red,1760,0.5,,,,,,0,278,278,278,,,,,,,,,,,,,,,,,,,,,md,002,2019_Sep_05_1215,StressSession,3.1.3,60.02253648093537,
280,red,1760,0.5,,,,,,0,279,279,279,,,,,,,,,,,,,,,,,,,,,md,002,2019_Sep_05_1215,StressSession,3.1.3,60.02253648093537,
281,red,1760,0.5,,,,,,0,280,280,280,,,,,,,,,,,,,,,,,,,,,md,002,2019_Sep_05_1215,StressSession,3.1.3,60.02253648093537,
282,red,1760,0.5,,,,,,0,281,281,281,,,,,,,,,,,,,,,,,,,,,md,002,2019_Sep_05_1215,StressSession,3.1.3,60.02253648093537,
283,red,1760,0.5,,,,,,0,282,282,282,,,,,,,,,,,,,,,,,,,,,md,002,2019_Sep_05_1215,StressSession,3.1.3,60.02253648093537,
284,red,1760,0.5,,,,,,0,283,283,283,,,,,,,,,,,,,,,,,,,,,md,002,2019_Sep_05_1215,StressSession,3.1.3,60.02253648093537,
285,red,1760,0.5,,,,,,0,284,284,284,,,,,,,,,,,,,,,,,,,,,md,002,2019_Sep_05_1215,StressSession,3.1.3,60.02253648093537,
286,red,1760,0.5,,,,,,0,285,285,285,,,,,,,,,,,,,,,,,,,,,md,002,2019_Sep_05_1215,StressSession,3.1.3,60.02253648093537,
287,red,1760,0.5,,,,,,0,286,286,286,,,,,,,,,,,,,,,,,,,,,md,002,2019_Sep_05_1215,StressSession,3.1.3,60.02253648093537,
288,red,1760,0.5,,,,,,0,287,287,287,,,,,,,,,,,,,,,,,,,,,md,002,2019_Sep_05_1215,StressSession,3.1.3,60.02253648093537,
289,red,1760,0.5,,,,,,0,288,288,288,,,,,,,,,,,,,,,,,,,,,md,002,2019_Sep_05_1215,StressSession,3.1.3,60.02253648093537,
290,red,1760,0.5,,,,,,0,289,289,289,,,,,,,,,,,,,,,,,,,,,md,002,2019_Sep_05_1215,StressSession,3.1.3,60.02253648093537,
291,red,1760,0.5,,,,,,0,290,290,290,,,,,,,,,,,,,,,,,,,,,md,002,2019_Sep_05_1215,StressSession,3.1.3,60.02253648093537,
292,red,1760,0.5,,,,,,0,291,291,291,,,,,,,,,,,,,,,,,,,,,md,002,2019_Sep_05_1215,StressSession,3.1.3,60.02253648093537,
293,red,1760,0.5,,,,,,0,292,292,292,,,,,,,,,,,,,,,,,,,,,md,002,2019_Sep_05_1215,StressSession,3.1.3,60.02253648093537,
294,red,1760,0.5,,,,,,0,293,293,293,,,,,,,,,,,,,,,,,,,,,md,002,2019_Sep_05_1215,StressSession,3.1.3,60.02253648093537,
295,red,1760,0.5,,,,,,0,294,294,294,,,,,,,,,,,,,,,,,,,,,md,002,2019_Sep_05_1215,StressSession,3.1.3,60.02253648093537,
296,red,1760,0.5,,,,,,0,295,295,295,,,,,,,,,,,,,,,,,,,,,md,002,2019_Sep_05_1215,StressSession,3.1.3,60.02253648093537,
297,red,1760,0.5,,,,,,0,296,296,296,,,,,,,,,,,,,,,,,,,,,md,002,2019_Sep_05_1215,StressSession,3.1.3,60.02253648093537,
298,red,1760,0.5,,,,,,0,297,297,297,,,,,,,,,,,,,,,,,,,,,md,002,2019_Sep_05_1215,StressSession,3.1.3,60.02253648093537,
299,red,1760,0.5,,,,,,0,298,298,298,,,,,,,,,,,,,,,,,,,,,md,002,2019_Sep_05_1215,StressSession,3.1.3,60.02253648093537,
300,red,1760,0.5,,,,,,0,299,299,299,,,,,,,,,,,,,,,,,,,,,md,002,2019_Sep_05_1215,StressSession,3.1.3,60.02253648093537,
,,,,,,,,,,,,,,,,,,,2019-09-05_12:23:23,7,57.354,,,,,,,,,,,,md,002,2019_Sep_05_1215,StressSession,3.1.3,60.02253648093537,
,,,,,,,,,,,,,,,,,,,,,,7,34.337,,,,,,,,,,md,002,2019_Sep_05_1215,StressSession,3.1.3,60.02253648093537,
,,,,orange,yellow,yellow,orange,left,,,,,0,0,0,179,,,,,,,,2019-09-05_12:27:27,right,0.8953714307169776,721.8341110051081,None,,,,,md,002,2019_Sep_05_1215,StressSession,3.1.3,60.02253648093537,
,,,,red,green,red,green,right,,,,,0,1,1,1,,,,,,,,,left,1.6222738110070622,723.2675859350068,None,,,,,md,002,2019_Sep_05_1215,StressSession,3.1.3,60.02253648093537,
,,,,red,magenta,magenta,red,left,,,,,0,2,2,112,,,,,,,,,left,1.978108567985828,725.4151901142957,None,,,,,md,002,2019_Sep_05_1215,StressSession,3.1.3,60.02253648093537,
,,,,orange,red,red,orange,left,,,,,0,3,3,174,,,,,,,,,left,1.498549758762465,727.9347545043238,None,,,,,md,002,2019_Sep_05_1215,StressSession,3.1.3,60.02253648093537,
,,,,brown,cyan,cyan,brown,left,,,,,0,4,4,196,,,,,,,,,left,1.2088185248583159,729.9768968336186,None,,,,,md,002,2019_Sep_05_1215,StressSession,3.1.3,60.02253648093537,
,,,,cyan,brown,brown,cyan,left,,,,,0,5,5,153,,,,,,,,,left,1.6418864144097824,731.7197834408819,None,,,,,md,002,2019_Sep_05_1215,StressSession,3.1.3,60.02253648093537,
,,,,magenta,blue,blue,magenta,left,,,,,0,6,6,148,,,,,,,,,left,1.417468516239751,733.9040993314982,None,,,,,md,002,2019_Sep_05_1215,StressSession,3.1.3,60.02253648093537,
,,,,black,green,green,black,left,,,,,0,7,7,212,,,,,,,,,left,1.2299863295882005,735.8676047936895,None,,,,,md,002,2019_Sep_05_1215,StressSession,3.1.3,60.02253648093537,
,,,,yellow,black,black,yellow,left,,,,,0,8,8,164,,,,,,,,,left,1.170678758979193,737.6306983515292,None,,,,,md,002,2019_Sep_05_1215,StressSession,3.1.3,60.02253648093537,
,,,,purple,yellow,yellow,purple,left,,,,,0,9,9,188,,,,,,,,,left,1.6139508172382193,739.347371389757,None,,,,,md,002,2019_Sep_05_1215,StressSession,3.1.3,60.02253648093537,
,,,,white,brown,white,brown,right,,,,,0,10,10,99,,,,,,,,,left,1.1463659915657445,741.4955426095298,None,,,,,md,002,2019_Sep_05_1215,StressSession,3.1.3,60.02253648093537,
,,,,brown,green,green,brown,left,,,,,0,11,11,194,,,,,,,,,left,1.5737771296230676,743.1635406195546,None,,,,,md,002,2019_Sep_05_1215,StressSession,3.1.3,60.02253648093537,
,,,,orange,yellow,orange,yellow,right,,,,,0,12,12,69,,,,,,,,,right,1.529785625417162,745.2721278055492,None,,,,,md,002,2019_Sep_05_1215,StressSession,3.1.3,60.02253648093537,
,,,,orange,purple,orange,purple,right,,,,,0,13,13,60,,,,,,,,,right,1.605463129995087,747.324341610105,None,,,,,md,002,2019_Sep_05_1215,StressSession,3.1.3,60.02253648093537,
,,,,brown,yellow,brown,yellow,right,,,,,0,14,14,87,,,,,,,,,right,1.342526585622636,749.4668897850793,None,,,,,md,002,2019_Sep_05_1215,StressSession,3.1.3,60.02253648093537,
,,,,red,orange,red,orange,right,,,,,0,15,15,5,,,,,,,,,right,1.9667447182887372,751.34663666913,None,,,,,md,002,2019_Sep_05_1215,StressSession,3.1.3,60.02253648093537,
,,,,purple,brown,purple,brown,right,,,,,0,16,16,70,,,,,,,,,right,1.688612427615908,753.848812670987,None,,,,,md,002,2019_Sep_05_1215,StressSession,3.1.3,60.02253648093537,
,,,,brown,magenta,brown,magenta,right,,,,,0,17,17,85,,,,,,,,,right,1.410023176553068,756.0798375081281,None,,,,,md,002,2019_Sep_05_1215,StressSession,3.1.3,60.02253648093537,
,,,,green,purple,green,purple,right,,,,,0,18,18,24,,,,,,,,,right,1.406641840334487,758.0270626364268,None,,,,,md,002,2019_Sep_05_1215,StressSession,3.1.3,60.02253648093537,
,,,,red,cyan,red,cyan,right,,,,,0,19,19,3,,,,,,,,,right,0.903620184422607,759.9537083338312,None,,,,,md,002,2019_Sep_05_1215,StressSession,3.1.3,60.02253648093537,
,,,,brown,magenta,magenta,brown,left,,,,,0,20,20,195,,,,,,,,,left,1.3629298030334667,761.3909541469475,None,,,,,md,002,2019_Sep_05_1215,StressSession,3.1.3,60.02253648093537,
,,,,yellow,red,yellow,red,right,,,,,0,21,21,55,,,,,,,,,right,0.9919398331219327,763.2894300069804,None,,,,,md,002,2019_Sep_05_1215,StressSession,3.1.3,60.02253648093537,
,,,,brown,cyan,brown,cyan,right,,,,,0,22,22,86,,,,,,,,,right,0.9978918382009851,764.8199196329981,None,,,,,md,002,2019_Sep_05_1215,StressSession,3.1.3,60.02253648093537,
,,,,purple,green,green,purple,left,,,,,0,23,23,185,,,,,,,,,left,1.980523076713098,766.3572598248618,None,,,,,md,002,2019_Sep_05_1215,StressSession,3.1.3,60.02253648093537,
,,,,brown,green,brown,green,right,,,,,0,24,24,84,,,,,,,,,right,1.4148573140114422,768.8668662330592,None,,,,,md,002,2019_Sep_05_1215,StressSession,3.1.3,60.02253648093537,
,,,,red,brown,red,brown,right,,,,,0,25,25,7,,,,,,,,,right,1.1497865811513748,770.8120873063147,None,,,,,md,002,2019_Sep_05_1215,StressSession,3.1.3,60.02253648093537,
,,,,cyan,white,white,cyan,left,,,,,0,26,26,154,,,,,,,,,left,1.3121897064017958,772.4976857580252,None,,,,,md,002,2019_Sep_05_1215,StressSession,3.1.3,60.02253648093537,
,,,,blue,brown,blue,brown,right,,,,,0,27,27,16,,,,,,,,,right,1.2639741985913133,774.3453613613751,None,,,,,md,002,2019_Sep_05_1215,StressSession,3.1.3,60.02253648093537,
,,,,magenta,red,magenta,red,right,,,,,0,28,28,37,,,,,,,,,right,1.0293086116766972,776.1480713796875,None,,,,,md,002,2019_Sep_05_1215,StressSession,3.1.3,60.02253648093537,
,,,,purple,white,white,purple,left,,,,,0,29,29,181,,,,,,,,,left,1.3132504006402996,777.7121077009986,None,,,,,md,002,2019_Sep_05_1215,StressSession,3.1.3,60.02253648093537,
,,,,magenta,white,magenta,white,right,,,,,0,30,30,35,,,,,,,,,right,1.492119886609089,779.5651776556183,None,,,,,md,002,2019_Sep_05_1215,StressSession,3.1.3,60.02253648093537,
,,,,white,blue,blue,white,left,,,,,0,31,31,202,,,,,,,,,left,1.1774478314221142,781.5841988985164,None,,,,,md,002,2019_Sep_05_1215,StressSession,3.1.3,60.02253648093537,
,,,,orange,magenta,orange,magenta,right,,,,,0,32,32,67,,,,,,,,,right,1.22704872708141,783.3105500250028,None,,,,,md,002,2019_Sep_05_1215,StressSession,3.1.3,60.02253648093537,
,,,,cyan,yellow,yellow,cyan,left,,,,,0,33,33,150,,,,,,,,,left,0.8102624514240233,785.0714279009519,None,,,,,md,002,2019_Sep_05_1215,StressSession,3.1.3,60.02253648093537,
,,,,orange,blue,blue,orange,left,,,,,0,34,34,175,,,,,,,,,left,1.0425126762775108,786.4230365209912,None,,,,,md,002,2019_Sep_05_1215,StressSession,3.1.3,60.02253648093537,
,,,,magenta,blue,magenta,blue,right,,,,,0,35,35,38,,,,,,,,,right,1.2246982184092303,788.0088955809242,None,,,,,md,002,2019_Sep_05_1215,StressSession,3.1.3,60.02253648093537,
,,,,red,purple,purple,red,left,,,,,0,36,36,116,,,,,,,,,left,1.165411127817606,789.764481505691,None,,,,,md,002,2019_Sep_05_1215,StressSession,3.1.3,60.02253648093537,
,,,,cyan,orange,cyan,orange,right,,,,,0,37,37,41,,,,,,,,,left,0.9895415377420704,791.4679935726879,None,,,,,md,002,2019_Sep_05_1215,StressSession,3.1.3,60.02253648093537,
,,,,blue,green,green,blue,left,,,,,0,38,38,120,,,,,,,,,left,1.2564174988094692,793.0013320544701,None,,,,,md,002,2019_Sep_05_1215,StressSession,3.1.3,60.02253648093537,
,,,,white,magenta,white,magenta,right,,,,,0,39,39,94,,,,,,,,,right,1.4415342434424474,794.8002618028902,None,,,,,md,002,2019_Sep_05_1215,StressSession,3.1.3,60.02253648093537,
,,,,brown,red,red,brown,left,,,,,0,40,40,192,,,,,,,,,left,1.2172771987432043,796.7761243956261,None,,,,,md,002,2019_Sep_05_1215,StressSession,3.1.3,60.02253648093537,
,,,,yellow,black,yellow,black,right,,,,,0,41,41,54,,,,,,,,,right,0.8564150241409152,798.5289954380762,None,,,,,md,002,2019_Sep_05_1215,StressSession,3.1.3,60.02253648093537,
,,,,purple,cyan,cyan,purple,left,,,,,0,42,42,187,,,,,,,,,left,1.6180924741056515,799.9274273514047,None,,,,,md,002,2019_Sep_05_1215,StressSession,3.1.3,60.02253648093537,
,,,,magenta,black,magenta,black,right,,,,,0,43,43,36,,,,,,,,,right,0.8984165533154282,802.0789547340414,None,,,,,md,002,2019_Sep_05_1215,StressSession,3.1.3,60.02253648093537,
,,,,cyan,black,cyan,black,right,,,,,0,44,44,45,,,,,,,,,right,1.567246564050265,803.4983163718966,None,,,,,md,002,2019_Sep_05_1215,StressSession,3.1.3,60.02253648093537,
,,,,red,black,red,black,right,,,,,0,45,45,9,,,,,,,,,right,1.7117190073336133,805.5941282936562,None,,,,,md,002,2019_Sep_05_1215,StressSession,3.1.3,60.02253648093537,
,,,,brown,white,brown,white,right,,,,,0,46,46,80,,,,,,,,,right,1.0382737393269963,807.8354055128793,None,,,,,md,002,2019_Sep_05_1215,StressSession,3.1.3,60.02253648093537,
,,,,cyan,orange,orange,cyan,left,,,,,0,47,47,151,,,,,,,,,left,1.1672662760672665,809.4185624905067,None,,,,,md,002,2019_Sep_05_1215,StressSession,3.1.3,60.02253648093537,
,,,,red,green,green,red,left,,,,,0,48,48,111,,,,,,,,,left,1.145452497452652,811.1120790289742,None,,,,,md,002,2019_Sep_05_1215,StressSession,3.1.3,60.02253648093537,
,,,,red,blue,blue,red,left,,,,,0,49,49,110,,,,,,,,,left,0.9277592983546583,812.7861071241448,None,,,,,md,002,2019_Sep_05_1215,StressSession,3.1.3,60.02253648093537,
,,,,yellow,blue,yellow,blue,right,,,,,0,50,50,56,,,,,,,,,right,0.9758813660855594,814.2496535463711,None,,,,,md,002,2019_Sep_05_1215,StressSession,3.1.3,60.02253648093537,
,,,,green,blue,green,blue,right,,,,,0,51,51,29,,,,,,,,,right,0.7285151816663529,815.753521709672,None,,,,,md,002,2019_Sep_05_1215,StressSession,3.1.3,60.02253648093537,
,,,,cyan,brown,cyan,brown,right,,,,,0,52,52,43,,,,,,,,,right,1.183704903428179,817.0098018216977,None,,,,,md,002,2019_Sep_05_1215,StressSession,3.1.3,60.02253648093537,
,,,,orange,magenta,magenta,orange,left,,,,,0,53,53,177,,,,,,,,,left,0.943257124912634,818.7305990234445,None,,,,,md,002,2019_Sep_05_1215,StressSession,3.1.3,60.02253648093537,
,,,,magenta,black,black,magenta,left,,,,,0,54,54,146,,,,,,,,,left,0.7537111498336344,820.2160633310407,None,,,,,md,002,2019_Sep_05_1215,StressSession,3.1.3,60.02253648093537,
,,,,white,blue,white,blue,right,,,,,0,55,55,92,,,,,,,,,right,1.0595183441223526,821.5104029955439,None,,,,,md,002,2019_Sep_05_1215,StressSession,3.1.3,60.02253648093537,
,,,,red,purple,red,purple,right,,,,,0,56,56,6,,,,,,,,,right,1.0902891437133349,823.103200514731,None,,,,,md,002,2019_Sep_05_1215,StressSession,3.1.3,60.02253648093537,
,,,,magenta,purple,magenta,purple,right,,,,,0,57,57,33,,,,,,,,,right,0.7767417828197267,824.7206999216639,None,,,,,md,002,2019_Sep_05_1215,StressSession,3.1.3,60.02253648093537,
,,,,white,purple,purple,white,left,,,,,0,58,58,208,,,,,,,,,left,1.322311955039595,826.0391121400423,None,,,,,md,002,2019_Sep_05_1215,StressSession,3.1.3,60.02253648093537,
,,,,white,green,white,green,right,,,,,0,59,59,93,,,,,,,,,right,1.03456514949562,827.8953142573348,None,,,,,md,002,2019_Sep_05_1215,StressSession,3.1.3,60.02253648093537,
,,,,red,black,black,red,left,,,,,0,60,60,119,,,,,,,,,left,0.7370105489155776,829.4648835967007,None,,,,,md,002,2019_Sep_05_1215,StressSession,3.1.3,60.02253648093537,
,,,,blue,magenta,blue,magenta,right,,,,,0,61,61,11,,,,,,,,,right,0.8583328924441957,830.7353410008243,None,,,,,md,002,2019_Sep_05_1215,StressSession,3.1.3,60.02253648093537,
,,,,cyan,red,cyan,red,right,,,,,0,62,62,46,,,,,,,,,right,0.8874273172712037,832.1303911512671,None,,,,,md,002,2019_Sep_05_1215,StressSession,3.1.3,60.02253648093537,
,,,,green,brown,green,brown,right,,,,,0,63,63,25,,,,,,,,,right,0.782396400978314,833.5474735338441,None,,,,,md,002,2019_Sep_05_1215,StressSession,3.1.3,60.02253648093537,
,,,,magenta,orange,magenta,orange,right,,,,,0,64,64,32,,,,,,,,,left,1.099160404616896,834.8703529560346,None,,,,,md,002,2019_Sep_05_1215,StressSession,3.1.3,60.02253648093537,
,,,,magenta,brown,brown,magenta,left,,,,,0,65,65,144,,,,,,,,,left,1.3417483449584324,836.5079705668015,None,,,,,md,002,2019_Sep_05_1215,StressSession,3.1.3,60.02253648093537,
,,,,white,red,red,white,left,,,,,0,66,66,201,,,,,,,,,left,1.399947007954779,838.3938960161247,None,,,,,md,002,2019_Sep_05_1215,StressSession,3.1.3,60.02253648093537,
,,,,black,white,white,black,left,,,,,0,67,67,219,,,,,,,,,left,1.1698450516012144,840.327547586174,None,,,,,md,002,2019_Sep_05_1215,StressSession,3.1.3,60.02253648093537,
,,,,black,red,red,black,left,,,,,0,68,68,210,,,,,,,,,left,1.3497146450897617,842.0279027438103,None,,,,,md,002,2019_Sep_05_1215,StressSession,3.1.3,60.02253648093537,
,,,,black,purple,purple,black,left,,,,,0,69,69,217,,,,,,,,,left,1.1384342514638774,843.895481937478,None,,,,,md,002,2019_Sep_05_1215,StressSession,3.1.3,60.02253648093537,
,,,,orange,cyan,cyan,orange,left,,,,,0,70,70,178,,,,,,,,,left,1.035311816799549,845.5743070500753,None,,,,,md,002,2019_Sep_05_1215,StressSession,3.1.3,60.02253648093537,
,,,,magenta,green,green,magenta,left,,,,,0,71,71,149,,,,,,,,,left,1.0088367008738715,847.1605112836364,None,,,,,md,002,2019_Sep_05_1215,StressSession,3.1.3,60.02253648093537,
,,,,black,blue,blue,black,left,,,,,0,72,72,211,,,,,,,,,right,0.9220133734513638,848.7033546268626,None,,,,,md,002,2019_Sep_05_1215,StressSession,3.1.3,60.02253648093537,
,,,,cyan,yellow,cyan,yellow,right,,,,,0,73,73,40,,,,,,,,,right,2.4341964238474247,850.167692943098,None,,,,,md,002,2019_Sep_05_1215,StressSession,3.1.3,60.02253648093537,
,,,,purple,orange,orange,purple,left,,,,,0,74,74,189,,,,,,,,,left,1.0500365226978374,853.1355248089812,None,,,,,md,002,2019_Sep_05_1215,StressSession,3.1.3,60.02253648093537,
,,,,black,blue,black,blue,right,,,,,0,75,75,101,,,,,,,,,right,0.7980538010058353,854.7153017303908,None,,,,,md,002,2019_Sep_05_1215,StressSession,3.1.3,60.02253648093537,
,,,,yellow,blue,blue,yellow,left,,,,,0,76,76,166,,,,,,,,,left,0.8492359246813521,856.0486016414734,None,,,,,md,002,2019_Sep_05_1215,StressSession,3.1.3,60.02253648093537,
,,,,magenta,purple,purple,magenta,left,,,,,0,77,77,143,,,,,,,,,left,1.0240401271807968,857.433952796973,None,,,,,md,002,2019_Sep_05_1215,StressSession,3.1.3,60.02253648093537,
,,,,red,white,white,red,left,,,,,0,78,78,118,,,,,,,,,left,1.2353730008514958,858.9900172714815,None,,,,,md,002,2019_Sep_05_1215,StressSession,3.1.3,60.02253648093537,
,,,,blue,yellow,yellow,blue,left,,,,,0,79,79,123,,,,,,,,,left,1.2669433744583785,860.7589007009287,None,,,,,md,002,2019_Sep_05_1215,StressSession,3.1.3,60.02253648093537,
,,,,green,yellow,green,yellow,right,,,,,0,80,80,22,,,,,,,,,right,0.7963159861897111,862.5576034624883,None,,,,,md,002,2019_Sep_05_1215,StressSession,3.1.3,60.02253648093537,
,,,,green,red,green,red,right,,,,,0,81,81,28,,,,,,,,,right,0.9009897821779305,863.8766556814128,None,,,,,md,002,2019_Sep_05_1215,StressSession,3.1.3,60.02253648093537,
,,,,red,yellow,yellow,red,left,,,,,0,82,82,114,,,,,,,,,left,1.3375849280723742,865.3123582398791,None,,,,,md,002,2019_Sep_05_1215,StressSession,3.1.3,60.02253648093537,
,,,,black,yellow,yellow,black,left,,,,,0,83,83,215,,,,,,,,,left,0.7556179247937962,867.1821718887868,None,,,,,md,002,2019_Sep_05_1215,StressSession,3.1.3,60.02253648093537,
,,,,white,green,green,white,left,,,,,0,84,84,203,,,,,,,,,left,0.9238604150275478,868.4694907472988,None,,,,,md,002,2019_Sep_05_1215,StressSession,3.1.3,60.02253648093537,
,,,,blue,cyan,cyan,blue,left,,,,,0,85,85,122,,,,,,,,,left,0.8435403464877709,869.9341405304667,None,,,,,md,002,2019_Sep_05_1215,StressSession,3.1.3,60.02253648093537,
,,,,brown,yellow,yellow,brown,left,,,,,0,86,86,197,,,,,,,,,left,1.2173834388338491,871.3202421932733,None,,,,,md,002,2019_Sep_05_1215,StressSession,3.1.3,60.02253648093537,
,,,,purple,green,purple,green,right,,,,,0,87,87,75,,,,,,,,,right,1.4371766930573813,873.0682914716087,None,,,,,md,002,2019_Sep_05_1215,StressSession,3.1.3,60.02253648093537,
,,,,blue,red,blue,red,right,,,,,0,88,88,19,,,,,,,,,right,0.8760237875403618,875.04536323871,None,,,,,md,002,2019_Sep_05_1215,StressSession,3.1.3,60.02253648093537,
,,,,white,cyan,white,cyan,right,,,,,0,89,89,95,,,,,,,,,right,0.7872143250895078,876.4623555945434,None,,,,,md,002,2019_Sep_05_1215,StressSession,3.1.3,60.02253648093537,
,,,,orange,red,orange,red,right,,,,,0,90,90,64,,,,,,,,,left,0.7181369328102392,877.7797165053582,None,,,,,md,002,2019_Sep_05_1215,StressSession,3.1.3,60.02253648093537,
,,,,magenta,brown,magenta,brown,right,,,,,0,91,91,34,,,,,,,,,right,0.96093607333205,879.0324595476989,None,,,,,md,002,2019_Sep_05_1215,StressSession,3.1.3,60.02253648093537,
,,,,orange,blue,orange,blue,right,,,,,0,92,92,65,,,,,,,,,right,0.7924098495229828,880.5292100515926,None,,,,,md,002,2019_Sep_05_1215,StressSession,3.1.3,60.02253648093537,
,,,,green,purple,purple,green,left,,,,,0,93,93,134,,,,,,,,,left,0.9100846166054453,881.8598863871032,None,,,,,md,002,2019_Sep_05_1215,StressSession,3.1.3,60.02253648093537,
,,,,yellow,purple,purple,yellow,left,,,,,0,94,94,161,,,,,,,,,left,1.2416467128718978,883.304115032845,None,,,,,md,002,2019_Sep_05_1215,StressSession,3.1.3,60.02253648093537,
,,,,blue,white,blue,white,right,,,,,0,95,95,17,,,,,,,,,right,0.8723348243922828,885.0894208763059,None,,,,,md,002,2019_Sep_05_1215,StressSession,3.1.3,60.02253648093537,
,,,,blue,magenta,magenta,blue,left,,,,,0,96,96,121,,,,,,,,,left,1.476204353027697,886.5012462943969,None,,,,,md,002,2019_Sep_05_1215,StressSession,3.1.3,60.02253648093537,
,,,,green,white,white,green,left,,,,,0,97,97,136,,,,,,,,,left,0.8975495659087755,888.5203285506805,None,,,,,md,002,2019_Sep_05_1215,StressSession,3.1.3,60.02253648093537,
,,,,blue,orange,blue,orange,right,,,,,0,98,98,14,,,,,,,,,right,0.8887717450852506,889.9527120663142,None,,,,,md,002,2019_Sep_05_1215,StressSession,3.1.3,60.02253648093537,
,,,,cyan,blue,blue,cyan,left,,,,,0,99,99,157,,,,,,,,,left,1.1546714919863916,891.3753031469255,None,,,,,md,002,2019_Sep_05_1215,StressSession,3.1.3,60.02253648093537,
,,,,yellow,white,yellow,white,right,,,,,0,100,100,53,,,,,,,,,right,0.9261827636757971,893.0677572844863,None,,,,,md,002,2019_Sep_05_1215,StressSession,3.1.3,60.02253648093537,
,,,,blue,black,blue,black,right,,,,,0,101,101,18,,,,,,,,,right,1.762928011032045,894.5349252564697,None,,,,,md,002,2019_Sep_05_1215,StressSession,3.1.3,60.02253648093537,
,,,,black,brown,black,brown,right,,,,,0,102,102,108,,,,,,,,,right,0.7724469524880533,896.8292273742741,None,,,,,md,002,2019_Sep_05_1215,StressSession,3.1.3,60.02253648093537,
,,,,yellow,brown,yellow,brown,right,,,,,0,103,103,52,,,,,,,,,right,0.7248193918458128,898.140861560202,None,,,,,md,002,2019_Sep_05_1215,StressSession,3.1.3,60.02253648093537,
,,,,purple,cyan,purple,cyan,right,,,,,0,104,104,77,,,,,,,,,right,0.7988346016722971,899.3952024705727,None,,,,,md,002,2019_Sep_05_1215,StressSession,3.1.3,60.02253648093537,
,,,,blue,red,red,blue,left,,,,,0,105,105,129,,,,,,,,,left,0.8059761544329831,900.7236528841838,None,,,,,md,002,2019_Sep_05_1215,StressSession,3.1.3,60.02253648093537,
,,,,white,purple,white,purple,right,,,,,0,106,106,98,,,,,,,,,right,0.82126534081317,902.0602185047198,None,,,,,md,002,2019_Sep_05_1215,StressSession,3.1.3,60.02253648093537,
,,,,red,brown,brown,red,left,,,,,0,107,107,117,,,,,,,,,left,1.9420304571992801,903.4196445180967,None,,,,,md,002,2019_Sep_05_1215,StressSession,3.1.3,60.02253648093537,
,,,,red,yellow,red,yellow,right,,,,,0,108,108,4,,,,,,,,,right,0.7459441032058294,905.895830951109,None,,,,,md,002,2019_Sep_05_1215,StressSession,3.1.3,60.02253648093537,
,,,,white,orange,orange,white,left,,,,,0,109,109,207,,,,,,,,,left,1.349194111312272,907.1727190807203,None,,,,,md,002,2019_Sep_05_1215,StressSession,3.1.3,60.02253648093537,
,,,,red,blue,red,blue,right,,,,,0,110,110,0,,,,,,,,,right,0.6243858128091233,909.0493820154727,None,,,,,md,002,2019_Sep_05_1215,StressSession,3.1.3,60.02253648093537,
,,,,yellow,white,white,yellow,left,,,,,0,111,111,163,,,,,,,,,left,0.7648817193658033,910.221007121926,None,,,,,md,002,2019_Sep_05_1215,StressSession,3.1.3,60.02253648093537,
,,,,magenta,white,white,magenta,left,,,,,0,112,112,145,,,,,,,,,left,1.1318644325244804,911.5175799616682,None,,,,,md,002,2019_Sep_05_1215,StressSession,3.1.3,60.02253648093537,
,,,,brown,orange,orange,brown,left,,,,,0,113,113,198,,,,,,,,,left,1.970999868586432,913.1827461826101,None,,,,,md,002,2019_Sep_05_1215,StressSession,3.1.3,60.02253648093537,
,,,,purple,blue,blue,purple,left,,,,,0,114,114,184,,,,,,,,,left,1.398014206305561,915.6999767039802,None,,,,,md,002,2019_Sep_05_1215,StressSession,3.1.3,60.02253648093537,
,,,,cyan,black,black,cyan,left,,,,,0,115,115,155,,,,,,,,,left,0.8368480741103212,917.6288466166159,None,,,,,md,002,2019_Sep_05_1215,StressSession,3.1.3,60.02253648093537,
,,,,green,black,green,black,right,,,,,0,116,116,27,,,,,,,,,right,0.830604655449406,918.9950459691058,None,,,,,md,002,2019_Sep_05_1215,StressSession,3.1.3,60.02253648093537,
,,,,orange,black,black,orange,left,,,,,0,117,117,173,,,,,,,,,left,0.8437873866985228,920.3656412720138,None,,,,,md,002,2019_Sep_05_1215,StressSession,3.1.3,60.02253648093537,
,,,,blue,white,white,blue,left,,,,,0,118,118,127,,,,,,,,,left,0.6684144370469767,921.7416236728523,None,,,,,md,002,2019_Sep_05_1215,StressSession,3.1.3,60.02253648093537,
,,,,white,yellow,yellow,white,left,,,,,0,119,119,206,,,,,,,,,left,0.6811756212698583,922.9842487332255,None,,,,,md,002,2019_Sep_05_1215,StressSession,3.1.3,60.02253648093537,
,,,,orange,green,green,orange,left,,,,,0,120,120,176,,,,,,,,,left,0.7123679678873032,924.209518685456,None,,,,,md,002,2019_Sep_05_1215,StressSession,3.1.3,60.02253648093537,
,,,,black,red,black,red,right,,,,,0,121,121,100,,,,,,,,,right,0.9462254474456131,925.4557853489368,None,,,,,md,002,2019_Sep_05_1215,StressSession,3.1.3,60.02253648093537,
,,,,blue,orange,orange,blue,left,,,,,0,122,122,124,,,,,,,,,left,1.8065167415609267,926.9391867214395,None,,,,,md,002,2019_Sep_05_1215,StressSession,3.1.3,60.02253648093537,
,,,,black,magenta,black,magenta,right,,,,,0,123,123,103,,,,,,,,,right,0.6950666197901683,929.2904006744752,None,,,,,md,002,2019_Sep_05_1215,StressSession,3.1.3,60.02253648093537,
,,,,black,white,black,white,right,,,,,0,124,124,109,,,,,,,,,right,0.743224527551547,930.5063155253893,None,,,,,md,002,2019_Sep_05_1215,StressSession,3.1.3,60.02253648093537,
,,,,black,orange,black,orange,right,,,,,0,125,125,106,,,,,,,,,right,0.9963741835726978,931.7733433799197,None,,,,,md,002,2019_Sep_05_1215,StressSession,3.1.3,60.02253648093537,
,,,,white,magenta,magenta,white,left,,,,,0,126,126,204,,,,,,,,,left,0.7321768381243601,933.3016702307586,None,,,,,md,002,2019_Sep_05_1215,StressSession,3.1.3,60.02253648093537,
,,,,cyan,blue,cyan,blue,right,,,,,0,127,127,47,,,,,,,,,right,0.6917424569535342,934.5658313095093,None,,,,,md,002,2019_Sep_05_1215,StressSession,3.1.3,60.02253648093537,
,,,,cyan,magenta,magenta,cyan,left,,,,,0,128,128,159,,,,,,,,,left,0.6904569091900612,935.7914579553776,None,,,,,md,002,2019_Sep_05_1215,StressSession,3.1.3,60.02253648093537,
,,,,white,red,white,red,right,,,,,0,129,129,91,,,,,,,,,right,0.9190843042852066,937.010875742614,None,,,,,md,002,2019_Sep_05_1215,StressSession,3.1.3,60.02253648093537,
,,,,black,yellow,black,yellow,right,,,,,0,130,130,105,,,,,,,,,right,0.754464643809797,938.4632840220024,None,,,,,md,002,2019_Sep_05_1215,StressSession,3.1.3,60.02253648093537,
,,,,red,magenta,red,magenta,right,,,,,0,131,131,2,,,,,,,,,right,1.3787335498525408,939.7591942478457,None,,,,,md,002,2019_Sep_05_1215,StressSession,3.1.3,60.02253648093537,
,,,,cyan,magenta,cyan,magenta,right,,,,,0,132,132,49,,,,,,,,,right,0.6825025557357094,941.6713648395646,None,,,,,md,002,2019_Sep_05_1215,StressSession,3.1.3,60.02253648093537,
,,,,blue,black,black,blue,left,,,,,0,133,133,128,,,,,,,,,left,0.9742792313847985,942.8911935071519,None,,,,,md,002,2019_Sep_05_1215,StressSession,3.1.3,60.02253648093537,
,,,,brown,black,black,brown,left,,,,,0,134,134,191,,,,,,,,,left,0.9767325668117337,944.4009215154531,None,,,,,md,002,2019_Sep_05_1215,StressSession,3.1.3,60.02253648093537,
,,,,white,orange,white,orange,right,,,,,0,135,135,97,,,,,,,,,right,0.8217781945841125,945.9077558679517,None,,,,,md,002,2019_Sep_05_1215,StressSession,3.1.3,60.02253648093537,
,,,,black,purple,black,purple,right,,,,,0,136,136,107,,,,,,,,,right,0.7444085285619622,947.2734543133477,None,,,,,md,002,2019_Sep_05_1215,StressSession,3.1.3,60.02253648093537,
,,,,blue,green,blue,green,right,,,,,0,137,137,10,,,,,,,,,right,0.7855908570377323,948.552314071308,None,,,,,md,002,2019_Sep_05_1215,StressSession,3.1.3,60.02253648093537,
,,,,orange,brown,orange,brown,right,,,,,0,138,138,61,,,,,,,,,right,1.1386386249716907,949.8708837298209,None,,,,,md,002,2019_Sep_05_1215,StressSession,3.1.3,60.02253648093537,
,,,,white,black,white,black,right,,,,,0,139,139,90,,,,,,,,,left,0.9625335146952239,951.5511872436798,None,,,,,md,002,2019_Sep_05_1215,StressSession,3.1.3,60.02253648093537,
,,,,magenta,cyan,cyan,magenta,left,,,,,0,140,140,140,,,,,,,,,left,1.395568550885173,953.0544145531005,None,,,,,md,002,2019_Sep_05_1215,StressSession,3.1.3,60.02253648093537,
,,,,green,white,green,white,right,,,,,0,141,141,26,,,,,,,,,right,0.9006497285545265,954.9813418507451,None,,,,,md,002,2019_Sep_05_1215,StressSession,3.1.3,60.02253648093537,
,,,,cyan,green,cyan,green,right,,,,,0,142,142,48,,,,,,,,,right,0.9816848910377303,956.4123199251796,None,,,,,md,002,2019_Sep_05_1215,StressSession,3.1.3,60.02253648093537,
,,,,purple,brown,brown,purple,left,,,,,0,143,143,180,,,,,,,,,left,1.0794658811441877,957.9305531140719,None,,,,,md,002,2019_Sep_05_1215,StressSession,3.1.3,60.02253648093537,
,,,,cyan,purple,purple,cyan,left,,,,,0,144,144,152,,,,,,,,,left,1.767964815329833,959.5455159855071,None,,,,,md,002,2019_Sep_05_1215,StressSession,3.1.3,60.02253648093537,
,,,,cyan,green,green,cyan,left,,,,,0,145,145,158,,,,,,,,,left,0.7741429539353248,961.8433666930064,None,,,,,md,002,2019_Sep_05_1215,StressSession,3.1.3,60.02253648093537,
,,,,brown,black,brown,black,right,,,,,0,146,146,81,,,,,,,,,right,1.1140527906584339,963.159521416125,None,,,,,md,002,2019_Sep_05_1215,StressSession,3.1.3,60.02253648093537,
,,,,red,orange,orange,red,left,,,,,0,147,147,115,,,,,,,,,left,0.7783059441542264,964.8071780754588,None,,,,,md,002,2019_Sep_05_1215,StressSession,3.1.3,60.02253648093537,
,,,,yellow,red,red,yellow,left,,,,,0,148,148,165,,,,,,,,,left,0.7910901683969769,966.1225400512342,None,,,,,md,002,2019_Sep_05_1215,StressSession,3.1.3,60.02253648093537,
,,,,magenta,orange,orange,magenta,left,,,,,0,149,149,142,,,,,,,,,left,0.8125348800297161,967.461198046889,None,,,,,md,002,2019_Sep_05_1215,StressSession,3.1.3,60.02253648093537,
,,,,magenta,yellow,yellow,magenta,left,,,,,0,150,150,141,,,,,,,,,left,0.7531176559937194,968.7925476629741,None,,,,,md,002,2019_Sep_05_1215,StressSession,3.1.3,60.02253648093537,
,,,,orange,white,orange,white,right,,,,,0,151,151,62,,,,,,,,,left,1.5844147920340674,970.089129889391,None,,,,,md,002,2019_Sep_05_1215,StressSession,3.1.3,60.02253648093537,
,,,,red,cyan,cyan,red,left,,,,,0,152,152,113,,,,,,,,,left,1.0850859392733128,972.2128778349891,None,,,,,md,002,2019_Sep_05_1215,StressSession,3.1.3,60.02253648093537,
,,,,blue,purple,blue,purple,right,,,,,0,153,153,15,,,,,,,,,right,1.0646046417959951,973.8333370311143,None,,,,,md,002,2019_Sep_05_1215,StressSession,3.1.3,60.02253648093537,
,,,,black,orange,orange,black,left,,,,,0,154,154,216,,,,,,,,,left,1.1035887817290586,975.4338887969184,None,,,,,md,002,2019_Sep_05_1215,StressSession,3.1.3,60.02253648093537,
,,,,yellow,magenta,magenta,yellow,left,,,,,0,155,155,168,,,,,,,,,left,1.1179410073095823,977.0837645514791,None,,,,,md,002,2019_Sep_05_1215,StressSession,3.1.3,60.02253648093537,
,,,,green,blue,blue,green,left,,,,,0,156,156,139,,,,,,,,,left,0.6321097660670603,978.7453634093768,None,,,,,md,002,2019_Sep_05_1215,StressSession,3.1.3,60.02253648093537,
,,,,cyan,white,cyan,white,right,,,,,0,157,157,44,,,,,,,,,right,0.6120180155887738,979.9098217897147,None,,,,,md,002,2019_Sep_05_1215,StressSession,3.1.3,60.02253648093537,
,,,,brown,purple,brown,purple,right,,,,,0,158,158,89,,,,,,,,,right,0.9652731436997328,981.0602654380932,None,,,,,md,002,2019_Sep_05_1215,StressSession,3.1.3,60.02253648093537,
,,,,green,orange,green,orange,right,,,,,0,159,159,23,,,,,,,,,right,1.0184687090934403,982.5596817575952,None,,,,,md,002,2019_Sep_05_1215,StressSession,3.1.3,60.02253648093537,
,,,,purple,red,purple,red,right,,,,,0,160,160,73,,,,,,,,,right,0.8699309823412023,984.1078008386567,None,,,,,md,002,2019_Sep_05_1215,StressSession,3.1.3,60.02253648093537,
,,,,purple,red,red,purple,left,,,,,0,161,161,183,,,,,,,,,left,1.1050740096629852,985.4969753574189,None,,,,,md,002,2019_Sep_05_1215,StressSession,3.1.3,60.02253648093537,
,,,,black,brown,brown,black,left,,,,,0,162,162,218,,,,,,,,,left,0.9257624966505773,987.1400282794909,None,,,,,md,002,2019_Sep_05_1215,StressSession,3.1.3,60.02253648093537,
,,,,yellow,purple,yellow,purple,right,,,,,0,163,163,51,,,,,,,,,right,1.4162337418526931,988.6095023867754,None,,,,,md,002,2019_Sep_05_1215,StressSession,3.1.3,60.02253648093537,
,,,,cyan,red,red,cyan,left,,,,,0,164,164,156,,,,,,,,,left,0.6273912553740502,990.5661547231186,None,,,,,md,002,2019_Sep_05_1215,StressSession,3.1.3,60.02253648093537,
,,,,purple,magenta,purple,magenta,right,,,,,0,165,165,76,,,,,,,,,right,1.846788562592792,991.7391238307191,None,,,,,md,002,2019_Sep_05_1215,StressSession,3.1.3,60.02253648093537,
,,,,brown,orange,brown,orange,right,,,,,0,166,166,88,,,,,,,,,right,1.8682601542486736,994.1173330067909,None,,,,,md,002,2019_Sep_05_1215,StressSession,3.1.3,60.02253648093537,
,,,,blue,purple,purple,blue,left,,,,,0,167,167,125,,,,,,,,,right,1.390929826926822,996.5147635325982,None,,,,,md,002,2019_Sep_05_1215,StressSession,3.1.3,60.02253648093537,
,,,,green,cyan,cyan,green,left,,,,,0,168,168,131,,,,,,,,,left,0.8040736461427969,998.4455171801746,None,,,,,md,002,2019_Sep_05_1215,StressSession,3.1.3,60.02253648093537,
,,,,purple,orange,purple,orange,right,,,,,0,169,169,79,,,,,,,,,right,1.2366568419472515,999.7808198662997,None,,,,,md,002,2019_Sep_05_1215,StressSession,3.1.3,60.02253648093537,
,,,,green,brown,brown,green,left,,,,,0,170,170,135,,,,,,,,,left,0.8257598513150697,1001.5599245311357,None,,,,,md,002,2019_Sep_05_1215,StressSession,3.1.3,60.02253648093537,
,,,,green,cyan,green,cyan,right,,,,,0,171,171,21,,,,,,,,,right,0.716952931799824,1002.9166318221926,None,,,,,md,002,2019_Sep_05_1215,StressSession,3.1.3,60.02253648093537,
,,,,purple,black,black,purple,left,,,,,0,172,172,182,,,,,,,,,left,0.7272663272672162,1004.1782572187794,None,,,,,md,002,2019_Sep_05_1215,StressSession,3.1.3,60.02253648093537,
,,,,magenta,red,red,magenta,left,,,,,0,173,173,147,,,,,,,,,left,0.7502564268854712,1005.4433770183484,None,,,,,md,002,2019_Sep_05_1215,StressSession,3.1.3,60.02253648093537,
,,,,blue,brown,brown,blue,left,,,,,0,174,174,126,,,,,,,,,right,0.6945558993543273,1006.7231528304237,None,,,,,md,002,2019_Sep_05_1215,StressSession,3.1.3,60.02253648093537,
,,,,yellow,orange,orange,yellow,left,,,,,0,175,175,160,,,,,,,,,right,1.3626174827668365,1007.9593787386698,None,,,,,md,002,2019_Sep_05_1215,StressSession,3.1.3,60.02253648093537,
,,,,green,black,black,green,left,,,,,0,176,176,137,,,,,,,,,left,1.5162240138445213,1009.8537184885065,None,,,,,md,002,2019_Sep_05_1215,StressSession,3.1.3,60.02253648093537,
,,,,green,magenta,magenta,green,left,,,,,0,177,177,130,,,,,,,,,left,1.1737695349499973,1011.8917319609448,None,,,,,md,002,2019_Sep_05_1215,StressSession,3.1.3,60.02253648093537,
,,,,white,brown,brown,white,left,,,,,0,178,178,209,,,,,,,,,left,1.1418147343485998,1013.6037667018809,None,,,,,md,002,2019_Sep_05_1215,StressSession,3.1.3,60.02253648093537,
,,,,yellow,cyan,yellow,cyan,right,,,,,0,179,179,59,,,,,,,,,right,0.8527405676718445,1015.2848936831092,None,,,,,md,002,2019_Sep_05_1215,StressSession,3.1.3,60.02253648093537,
,,,,brown,blue,brown,blue,right,,,,,0,180,180,83,,,,,,,,,right,1.3360719667814465,1016.6815702882734,None,,,,,md,002,2019_Sep_05_1215,StressSession,3.1.3,60.02253648093537,
,,,,magenta,yellow,magenta,yellow,right,,,,,0,181,181,31,,,,,,,,,left,0.7057896156072729,1018.5518443109072,None,,,,,md,002,2019_Sep_05_1215,StressSession,3.1.3,60.02253648093537,
,,,,yellow,cyan,cyan,yellow,left,,,,,0,182,182,169,,,,,,,,,left,0.8518624869227551,1019.7902048343083,None,,,,,md,002,2019_Sep_05_1215,StressSession,3.1.3,60.02253648093537,
,,,,brown,purple,purple,brown,left,,,,,0,183,183,199,,,,,,,,,left,1.1909066162402269,1021.1788856993157,None,,,,,md,002,2019_Sep_05_1215,StressSession,3.1.3,60.02253648093537,
,,,,red,white,red,white,right,,,,,0,184,184,8,,,,,,,,,right,0.9929275672982385,1022.9046292519504,None,,,,,md,002,2019_Sep_05_1215,StressSession,3.1.3,60.02253648093537,
,,,,orange,black,orange,black,right,,,,,0,185,185,63,,,,,,,,,right,0.7652870530448581,1024.4446783527922,None,,,,,md,002,2019_Sep_05_1215,StressSession,3.1.3,60.02253648093537,
,,,,black,magenta,magenta,black,left,,,,,0,186,186,213,,,,,,,,,left,1.4580210841779717,1025.7357147611433,None,,,,,md,002,2019_Sep_05_1215,StressSession,3.1.3,60.02253648093537,
,,,,yellow,magenta,yellow,magenta,right,,,,,0,187,187,58,,,,,,,,,right,2.331816389816595,1027.7257311792907,None,,,,,md,002,2019_Sep_05_1215,StressSession,3.1.3,60.02253648093537,
,,,,white,yellow,white,yellow,right,,,,,0,188,188,96,,,,,,,,,right,0.8698900223059809,1030.5879719150694,None,,,,,md,002,2019_Sep_05_1215,StressSession,3.1.3,60.02253648093537,
,,,,yellow,green,yellow,green,right,,,,,0,189,189,57,,,,,,,,,right,0.621831783962989,1032.0037819765607,None,,,,,md,002,2019_Sep_05_1215,StressSession,3.1.3,60.02253648093537,
,,,,purple,blue,purple,blue,right,,,,,0,190,190,74,,,,,,,,,right,0.6476686060107113,1033.1703011586571,None,,,,,md,002,2019_Sep_05_1215,StressSession,3.1.3,60.02253648093537,
,,,,purple,white,purple,white,right,,,,,0,191,191,71,,,,,,,,,right,1.33582620657171,1034.337745354876,None,,,,,md,002,2019_Sep_05_1215,StressSession,3.1.3,60.02253648093537,
,,,,green,red,red,green,left,,,,,0,192,192,138,,,,,,,,,left,0.8292755876484534,1036.2125347946965,None,,,,,md,002,2019_Sep_05_1215,StressSession,3.1.3,60.02253648093537,
,,,,orange,cyan,orange,cyan,right,,,,,0,193,193,68,,,,,,,,,right,0.7137239157111708,1037.5843921786814,None,,,,,md,002,2019_Sep_05_1215,StressSession,3.1.3,60.02253648093537,
,,,,yellow,orange,yellow,orange,right,,,,,0,194,194,50,,,,,,,,,right,1.5059063517066988,1038.8317400164183,None,,,,,md,002,2019_Sep_05_1215,StressSession,3.1.3,60.02253648093537,
,,,,magenta,green,magenta,green,right,,,,,0,195,195,39,,,,,,,,,right,1.1922139240225533,1040.8818951525507,None,,,,,md,002,2019_Sep_05_1215,StressSession,3.1.3,60.02253648093537,
,,,,green,magenta,green,magenta,right,,,,,0,196,196,20,,,,,,,,,right,0.7588559008902394,1042.6107772678633,None,,,,,md,002,2019_Sep_05_1215,StressSession,3.1.3,60.02253648093537,
,,,,orange,white,white,orange,left,,,,,0,197,197,172,,,,,,,,,left,0.7465597837308451,1043.911020724071,None,,,,,md,002,2019_Sep_05_1215,StressSession,3.1.3,60.02253648093537,
,,,,black,cyan,black,cyan,right,,,,,0,198,198,104,,,,,,,,,right,0.7221889896013636,1045.1914088033357,None,,,,,md,002,2019_Sep_05_1215,StressSession,3.1.3,60.02253648093537,
,,,,blue,cyan,blue,cyan,right,,,,,0,199,199,12,,,,,,,,,right,0.8179155779546363,1046.4478071021288,None,,,,,md,002,2019_Sep_05_1215,StressSession,3.1.3,60.02253648093537,
,,,,purple,yellow,purple,yellow,right,,,,,0,200,200,78,,,,,,,,,right,0.865303778392672,1047.8087904501679,None,,,,,md,002,2019_Sep_05_1215,StressSession,3.1.3,60.02253648093537,
,,,,brown,white,white,brown,left,,,,,0,201,201,190,,,,,,,,,left,0.7248159785096959,1049.2048253481178,None,,,,,md,002,2019_Sep_05_1215,StressSession,3.1.3,60.02253648093537,
,,,,orange,purple,purple,orange,left,,,,,0,202,202,170,,,,,,,,,left,1.7613356896731602,1050.4727901634476,None,,,,,md,002,2019_Sep_05_1215,StressSession,3.1.3,60.02253648093537,
,,,,blue,yellow,blue,yellow,right,,,,,0,203,203,13,,,,,,,,,right,1.0340143223588711,1052.7680847087656,None,,,,,md,002,2019_Sep_05_1215,StressSession,3.1.3,60.02253648093537,
,,,,brown,blue,blue,brown,left,,,,,0,204,204,193,,,,,,,,,left,1.9571801234603754,1054.324387263477,None,,,,,md,002,2019_Sep_05_1215,StressSession,3.1.3,60.02253648093537,
,,,,black,green,black,green,right,,,,,0,205,205,102,,,,,,,,,right,1.4422996840958149,1056.8157199494144,None,,,,,md,002,2019_Sep_05_1215,StressSession,3.1.3,60.02253648093537,
,,,,purple,black,purple,black,right,,,,,0,206,206,72,,,,,,,,,right,0.9516355853957066,1058.8019445776595,None,,,,,md,002,2019_Sep_05_1215,StressSession,3.1.3,60.02253648093537,
,,,,purple,magenta,magenta,purple,left,,,,,0,207,207,186,,,,,,,,,left,1.2504019203431653,1060.2955846788989,None,,,,,md,002,2019_Sep_05_1215,StressSession,3.1.3,60.02253648093537,
,,,,white,black,black,white,left,,,,,0,208,208,200,,,,,,,,,left,1.2434139677134226,1062.0787111071668,None,,,,,md,002,2019_Sep_05_1215,StressSession,3.1.3,60.02253648093537,
,,,,magenta,cyan,magenta,cyan,right,,,,,0,209,209,30,,,,,,,,,right,0.7464787169951705,1063.8636064969442,None,,,,,md,002,2019_Sep_05_1215,StressSession,3.1.3,60.02253648093537,
,,,,green,orange,orange,green,left,,,,,0,210,210,133,,,,,,,,,left,0.820103953155467,1065.1416615608846,None,,,,,md,002,2019_Sep_05_1215,StressSession,3.1.3,60.02253648093537,
,,,,yellow,brown,brown,yellow,left,,,,,0,211,211,162,,,,,,,,,left,1.0853939928695127,1066.4922073533503,None,,,,,md,002,2019_Sep_05_1215,StressSession,3.1.3,60.02253648093537,
,,,,green,yellow,yellow,green,left,,,,,0,212,212,132,,,,,,,,,left,0.9282286320883486,1068.1058676103405,None,,,,,md,002,2019_Sep_05_1215,StressSession,3.1.3,60.02253648093537,
,,,,black,cyan,cyan,black,left,,,,,0,213,213,214,,,,,,,,,left,0.7275048341373349,1069.5703731800518,None,,,,,md,002,2019_Sep_05_1215,StressSession,3.1.3,60.02253648093537,
,,,,cyan,purple,cyan,purple,right,,,,,0,214,214,42,,,,,,,,,right,1.1388028917783686,1070.8312233226438,None,,,,,md,002,2019_Sep_05_1215,StressSession,3.1.3,60.02253648093537,
,,,,brown,red,brown,red,right,,,,,0,215,215,82,,,,,,,,,right,1.0543287930272527,1072.4997166930916,None,,,,,md,002,2019_Sep_05_1215,StressSession,3.1.3,60.02253648093537,
,,,,orange,green,orange,green,right,,,,,0,216,216,66,,,,,,,,,right,0.7875279253571534,1074.0860907401309,None,,,,,md,002,2019_Sep_05_1215,StressSession,3.1.3,60.02253648093537,
,,,,white,cyan,cyan,white,left,,,,,0,217,217,205,,,,,,,,,left,1.0419456357935815,1075.4159000882348,None,,,,,md,002,2019_Sep_05_1215,StressSession,3.1.3,60.02253648093537,
,,,,yellow,green,green,yellow,left,,,,,0,218,218,167,,,,,,,,,left,1.52150999168839,1077.00013653345,None,,,,,md,002,2019_Sep_05_1215,StressSession,3.1.3,60.02253648093537,
,,,,orange,brown,brown,orange,left,,,,,0,219,219,171,,,,,,,,,left,0.7926457963910707,1079.0652390956707,None,,,,,md,002,2019_Sep_05_1215,StressSession,3.1.3,60.02253648093537,
,,,,,,,,,,,,,,,,,,,,4,30.956,,,,,,,,2019-09-05_12:33:28,,,,md,002,2019_Sep_05_1215,StressSession,3.1.3,60.02253648093537,
,,,,,,,,,,,,,,,,,,,,,,4,10.468,,,,,,,,,,md,002,2019_Sep_05_1215,StressSession,3.1.3,60.02253648093537,
,,,,,,,,,,,,,,,,,,,,1,13.134,,,,,,,,,2019-09-05_12:35:02,2019-09-05_12:40:02,,md,002,2019_Sep_05_1215,StressSession,3.1.3,60.02253648093537,
,,,,,,,,,,,,,,,,,,,,,,,,,,,,,,,,2019-09-05_12:40:18,,,,,,,
